Folder: GamryParser/example_project/raw_outputs (part 19)

File: 20240522_G_GM0016_HL03_E02_CV50.DTA
EXPLAIN
TAG	CV
TITLE	LABEL	Cyclic Voltammetry	Test &Identifier
DATE	LABEL	5/22/2024	Date
TIME	LABEL	17:11:16	Time
NOTES	NOTES	1	&Notes...

PSTAT	PSTAT	REF600P-43058	Potentiostat
VINIT	POTEN	0.00000E+000	T	Initial &E (V)
VLIMIT1	POTEN	8.00000E-001	F	Scan Limit &1 (V)
VLIMIT2	POTEN	-6.00000E-001	F	Scan Limit &2 (V)
VFINAL	POTEN	0.00000E+000	T	Final &E (V)
SCANRATE	QUANT	4.99999E+001	&Scan Rate (mV/s)
STEPSIZE	QUANT	1.00000E+001	St&ep Size (mV)
CYCLES	IQUANT	4	C&ycles (#)
IMODE	SELECTOR	0	I/E Range &Mode
IRANGE	QUANT	1.00000E-005	&Max Current (mA)
AREA	QUANT	1.00000E+000	Electrode &Area (cm^2)
ELECTRODETYPE	SELECTOR	0	Electrode Type
STRIPPING	TOGGLE	F	Used for Stripping
POLARITY	TOGGLE	F	Signal Polarity
CONDIT	TWOPARAM	F	1.50000E+001	0.00000E+000	Conditionin&g	Time(s)	E(V)
DELAY	TWOPARAM	T	1.00000E+001	0.00000E+000	Init. De&lay	Time(s)	Stab.(mV/s)
EQDELAY	QUANT	5.00000E+000	Equil. &Time (s)
IRCOMP	SELECTOR	0	IRCom&p
PFCOR	QUANT	5.00000E+001	PF Corr. (ohm)
SAMPLINGMODE	SELECTOR	1	Sampling &Mode
OCVCURVE	TABLE	39
	Pt	T	Vf	Vm	Ach	Over	Temp
	#	s	V vs. Ref.	V	V	bits	deg C
	0	0.258333	-1.72431E-001	-1.72431E-001	2.38792E-004	..........a	-327.66
	1	0.516667	-1.72431E-001	-1.72435E-001	2.41459E-004	..........a	-327.66
	2	0.775	-1.72431E-001	-1.72433E-001	2.37926E-004	..........a	-327.66
	3	1.03333	-1.72432E-001	-1.72432E-001	2.42326E-004	..........a	-327.66
	4	1.29167	-1.72432E-001	-1.72429E-001	2.42459E-004	..........a	-327.66
	5	1.55	-1.72432E-001	-1.72428E-001	2.43192E-004	..........a	-327.66
	6	1.80833	-1.72431E-001	-1.72424E-001	2.29192E-004	..........a	-327.66
	7	2.06667	-1.72430E-001	-1.72426E-001	2.42459E-004	..........a	-327.66
	8	2.325	-1.72428E-001	-1.72423E-001	2.45526E-004	..........a	-327.66
	9	2.58333	-1.72426E-001	-1.72423E-001	2.42259E-004	..........a	-327.66
	10	2.84167	-1.72425E-001	-1.72421E-001	2.44859E-004	..........a	-327.66
	11	3.1	-1.72424E-001	-1.72421E-001	2.33792E-004	..........a	-327.66
	12	3.35833	-1.72423E-001	-1.72420E-001	2.34459E-004	..........a	-327.66
	13	3.61667	-1.72422E-001	-1.72420E-001	2.41326E-004	..........a	-327.66
	14	3.875	-1.72421E-001	-1.72417E-001	2.25192E-004	..........a	-327.66
	15	4.13333	-1.72420E-001	-1.72416E-001	2.26792E-004	..........a	-327.66
	16	4.39167	-1.72419E-001	-1.72413E-001	2.33726E-004	..........a	-327.66
	17	4.65	-1.72417E-001	-1.72411E-001	2.27059E-004	..........a	-327.66
	18	4.90833	-1.72415E-001	-1.72408E-001	2.27592E-004	..........a	-327.66
	19	5.16667	-1.72413E-001	-1.72408E-001	2.21726E-004	..........a	-327.66
	20	5.425	-1.72411E-001	-1.72408E-001	2.24659E-004	..........a	-327.66
	21	5.68333	-1.72410E-001	-1.72409E-001	2.42592E-004	..........a	-327.66
	22	5.94167	-1.72409E-001	-1.72406E-001	2.26459E-004	..........a	-327.66
	23	6.2	-1.72408E-001	-1.72407E-001	2.24726E-004	..........a	-327.66
	24	6.45833	-1.72408E-001	-1.72408E-001	2.30059E-004	..........a	-327.66
	25	6.71667	-1.72407E-001	-1.72405E-001	2.27926E-004	..........a	-327.66
	26	6.975	-1.72407E-001	-1.72405E-001	2.36126E-004	..........a	-327.66
	27	7.23333	-1.72407E-001	-1.72403E-001	2.28126E-004	..........a	-327.66
	28	7.49167	-1.72406E-001	-1.72405E-001	2.29592E-004	..........a	-327.66
	29	7.75	-1.72405E-001	-1.72404E-001	2.19792E-004	..........a	-327.66
	30	8.00833	-1.72405E-001	-1.72405E-001	2.19926E-004	..........a	-327.66
	31	8.26667	-1.72404E-001	-1.72402E-001	2.20326E-004	..........a	-327.66
	32	8.525	-1.72404E-001	-1.72403E-001	2.30992E-004	..........a	-327.66
	33	8.78333	-1.72404E-001	-1.72401E-001	2.20659E-004	..........a	-327.66
	34	9.04167	-1.72403E-001	-1.72403E-001	2.26992E-004	..........a	-327.66
	35	9.3	-1.72403E-001	-1.72403E-001	2.22392E-004	..........a	-327.66
	36	9.5583	-1.72403E-001	-1.72403E-001	2.23059E-004	..........a	-327.66
	37	9.8167	-1.72403E-001	-1.72401E-001	2.32459E-004	..........a	-327.66
	38	10.075	-1.72403E-001	-1.72404E-001	2.34992E-004	..........a	-327.66
EOC	QUANT	-0.1724027	Open Circuit (V)
PSTATMODEL	IQUANT	7	Pstat Model
PSTATSECTION	LABEL	REF600P-43058	Pstat Section
PSTATSERIALNO	LABEL	43058	Pstat Serial Number
CTRLMODE	IQUANT	1	Control Mode
ELECTROMETER	IQUANT	0	RE=0 or CS=1
IESTAB	IQUANT	2	I/E Stability
CASPEED	IQUANT	4	Control Amp Speed
CONVENTION	IQUANT	1	Current Convention
ICHRANGE	IQUANT	2	Ich Range
ICHRANGEMODE	TOGGLE	F	Ich Auto Range
ICHOFFSETENABLE	TOGGLE	F	Ich Offset Enable
ICHOFFSET	QUANT	0	Ich Offset (V)
ICHFILTER	IQUANT	2	Ich Filter
VCHRANGE	IQUANT	2	Vch Range
VCHRANGEMODE	TOGGLE	F	Vch Auto Range
VCHOFFSETENABLE	TOGGLE	F	Vch Offset Enable
VCHOFFSET	QUANT	0	Vch Offset (V)
VCHFILTER	IQUANT	2	Vch Filter
ACHRANGE	IQUANT	2	Ach Range
ACHOFFSETENABLE	TOGGLE	F	Ach Offset Enable
ACHOFFSET	QUANT	0	Ach Offset (V)
ACHFILTER	IQUANT	1	Ach Filter
IERANGELOWERLIMIT	IQUANT	1	I/E Range Lower Limit
IERANGEMODE	TOGGLE	T	I/E AutoRange
IERANGE	IQUANT	4	I/E Range
POSFEEDENABLE	TOGGLE	F	Positive Feedback IR Comp
POSFEEDRESISTANCE	QUANT	0	Positive Feedback Resistance (ohm)
ACHSELECT	IQUANT	4	Ach Select
SENSECABLEID	IQUANT	7	Sense Cable ID
PWRCABLEID	IQUANT	7	Power Cable ID
DCCALDATE	LABEL	3/22/2024	DC Calibration Date
ACCALDATE	LABEL	3/22/2024	AC Calibration Date
THERMOSELECT	IQUANT	1	Thermo Select
FRAMEWORKVERSION	LABEL	7.8.4	Framework Version
INSTRUMENTVERSION	LABEL	4.42	Instrument Version
CURVE1	TABLE
	Pt	T	Vf	Im	Vu	Sig	Ach	IERange	Over	Temp
	#	s	V vs. Ref.	A	V	V	V	#	bits	deg C
	0	0.2	-1.72349E-001	1.17161E-010	0.00000E+000	-1.72400E-001	9.87192E-004	5	..........a	-327.66
	3	0.8	-1.42362E-001	1.97803E-008	0.00000E+000	-1.42400E-001	9.96492E-004	5	..........a	-327.66
	6	1.4	-1.12358E-001	2.90454E-008	0.00000E+000	-1.12400E-001	1.00009E-003	5	..........a	-327.66
	9	2	-8.23100E-002	3.62931E-008	0.00000E+000	-8.24000E-002	9.73992E-004	5	..........a	-327.66
	12	2.6	-5.23958E-002	4.31584E-008	0.00000E+000	-5.24000E-002	9.80492E-004	5	..........a	-327.66
	15	3.2	-2.24216E-002	5.01484E-008	0.00000E+000	-2.24000E-002	9.93192E-004	5	..........a	-327.66
	18	3.8	7.66999E-003	5.74387E-008	0.00000E+000	7.60000E-003	9.83692E-004	5	..........a	-327.66
	21	4.4	3.76540E-002	6.49585E-008	0.00000E+000	3.76000E-002	9.75592E-004	5	..........a	-327.66
	24	5	6.76329E-002	7.26997E-008	0.00000E+000	6.76000E-002	9.83292E-004	5	..........a	-327.66
	27	5.6	9.75538E-002	8.03794E-008	0.00000E+000	9.76000E-002	9.87792E-004	5	..........a	-327.66
	30	6.2	1.27582E-001	8.76556E-008	0.00000E+000	1.27600E-001	1.01579E-003	5	..........a	-327.66
	33	6.8	1.57621E-001	9.45704E-008	0.00000E+000	1.57600E-001	9.92392E-004	5	..........a	-327.66
	36	7.4	1.87609E-001	1.01274E-007	0.00000E+000	1.87600E-001	9.86492E-004	5	..........a	-327.66
	39	8	2.17573E-001	1.07942E-007	0.00000E+000	2.17600E-001	9.93992E-004	5	..........a	-327.66
	42	8.6	2.47551E-001	1.15136E-007	0.00000E+000	2.47600E-001	1.01739E-003	5	..........a	-327.66
	45	9.2	2.77569E-001	1.22105E-007	0.00000E+000	2.77600E-001	9.90892E-004	5	..........a	-327.66
	48	9.8	3.07536E-001	1.29087E-007	0.00000E+000	3.07600E-001	9.86792E-004	5	..........a	-327.66
	51	10.4	3.37525E-001	1.36117E-007	0.00000E+000	3.37600E-001	1.01309E-003	5	..........a	-327.66
	54	11	3.67612E-001	1.43248E-007	0.00000E+000	3.67600E-001	1.00139E-003	5	..........a	-327.66
	57	11.6	3.97596E-001	1.49380E-007	0.00000E+000	3.97600E-001	9.65392E-004	5	..........a	-327.66
	60	12.2	4.27506E-001	1.54648E-007	0.00000E+000	4.27600E-001	9.91192E-004	5	..........a	-327.66
[...]
	1085	217.2	-5.19839E-001	-6.75282E-008	0.00000E+000	-5.20000E-001	9.96592E-004	5	..........a	-327.66
	1086	217.4	-5.09840E-001	-6.20969E-008	0.00000E+000	-5.10000E-001	1.00029E-003	5	..........a	-327.66
	1087	217.6	-4.99808E-001	-5.70670E-008	0.00000E+000	-5.00000E-001	9.88792E-004	5	..........a	-327.66
	1088	217.8	-4.89846E-001	-5.23788E-008	0.00000E+000	-4.90000E-001	1.00219E-003	5	..........a	-327.66
	1089	218	-4.79857E-001	-4.79895E-008	0.00000E+000	-4.80000E-001	1.00209E-003	5	..........a	-327.66
	1090	218.2	-4.69832E-001	-4.38805E-008	0.00000E+000	-4.70000E-001	9.91992E-004	5	..........a	-327.66
	1091	218.4	-4.59795E-001	-3.99581E-008	0.00000E+000	-4.60000E-001	9.88092E-004	5	..........a	-327.66
	1092	218.6	-4.49840E-001	-3.60649E-008	0.00000E+000	-4.50000E-001	1.01219E-003	5	..........a	-327.66
	1093	218.8	-4.39887E-001	-3.26025E-008	0.00000E+000	-4.40000E-001	1.00799E-003	5	..........a	-327.66
	1094	219	-4.29847E-001	-2.93613E-008	0.00000E+000	-4.30000E-001	1.01309E-003	5	..........a	-327.66
	1095	219.2	-4.19773E-001	-2.62822E-008	0.00000E+000	-4.20000E-001	1.00169E-003	5	..........a	-327.66
	1096	219.4	-4.09873E-001	-2.33246E-008	0.00000E+000	-4.10000E-001	1.01159E-003	5	..........a	-327.66
	1097	219.6	-3.99856E-001	-2.05087E-008	0.00000E+000	-4.00000E-001	1.00079E-003	5	..........a	-327.66
	1098	219.8	-3.89940E-001	-1.77670E-008	0.00000E+000	-3.90000E-001	1.02519E-003	5	..........a	-327.66
	1099	220	-3.79835E-001	-1.51417E-008	0.00000E+000	-3.80000E-001	1.00949E-003	5	..........a	-327.66
	1100	220.2	-3.69867E-001	-1.26009E-008	0.00000E+000	-3.70000E-001	1.01499E-003	5	..........a	-327.66
	1101	220.4	-3.59881E-001	-1.01118E-008	0.00000E+000	-3.60000E-001	1.01589E-003	5	..........a	-327.66
	1102	220.6	-3.49877E-001	-7.70280E-009	0.00000E+000	-3.50000E-001	9.97592E-004	5	..........a	-327.66
	1103	220.8	-3.39829E-001	-5.40031E-009	0.00000E+000	-3.40000E-001	9.98492E-004	5	..........a	-327.66
	1104	221	-3.29873E-001	-3.10937E-009	0.00000E+000	-3.30000E-001	1.00819E-003	5	..........a	-327.66
	1105	221.2	-3.19886E-001	-9.19358E-010	0.00000E+000	-3.20000E-001	1.00519E-003	5	..........a	-327.66
	1106	221.4	-3.09914E-001	1.26011E-009	0.00000E+000	-3.10000E-001	1.00799E-003	5	..........a	-327.66
	1107	221.6	-2.99870E-001	3.36283E-009	0.00000E+000	-3.00000E-001	9.95992E-004	5	..........a	-327.66
	1108	221.8	-2.89918E-001	5.43215E-009	0.00000E+000	-2.90000E-001	1.01139E-003	5	..........a	-327.66
	1109	222	-2.79953E-001	7.57530E-009	0.00000E+000	-2.80000E-001	1.01599E-003	5	..........a	-327.66
	1110	222.2	-2.69877E-001	9.60187E-009	0.00000E+000	-2.70000E-001	1.02479E-003	5	..........a	-327.66
	1111	222.4	-2.59814E-001	1.16247E-008	0.00000E+000	-2.60000E-001	9.94892E-004	5	..........a	-327.66
	1112	222.6	-2.49921E-001	1.35846E-008	0.00000E+000	-2.50000E-001	1.02359E-003	5	..........a	-327.66
	1113	222.8	-2.39922E-001	1.55390E-008	0.00000E+000	-2.40000E-001	1.00799E-003	5	..........a	-327.66
	1114	223	-2.29951E-001	1.74865E-008	0.00000E+000	-2.30000E-001	1.00279E-003	5	..........a	-327.66
	1115	223.2	-2.19885E-001	1.94313E-008	0.00000E+000	-2.20000E-001	9.89692E-004	5	..........a	-327.66
	1116	223.4	-2.09918E-001	2.13780E-008	0.00000E+000	-2.10000E-001	1.00959E-003	5	..........a	-327.66
	1117	223.6	-2.00003E-001	2.33181E-008	0.00000E+000	-2.00000E-001	1.00979E-003	5	..........a	-327.66
	1118	223.8	-1.89981E-001	2.52528E-008	0.00000E+000	-1.90000E-001	1.00399E-003	5	..........a	-327.66
	1119	224	-1.79918E-001	2.71605E-008	0.00000E+000	-1.80000E-001	1.00429E-003	5	..........a	-327.66
	1120	224.2	-1.69919E-001	2.91045E-008	0.00000E+000	-1.70000E-001	1.02139E-003	5	..........a	-327.66

File: 20240522_O_GM0016_HL03_E04_CV50.DTA
EXPLAIN
TAG	CV
TITLE	LABEL	Cyclic Voltammetry	Test &Identifier
DATE	LABEL	5/22/2024	Date
TIME	LABEL	17:37:08	Time
NOTES	NOTES	1	&Notes...

PSTAT	PSTAT	REF600P-43058	Potentiostat
VINIT	POTEN	0.00000E+000	T	Initial &E (V)
VLIMIT1	POTEN	8.00000E-001	F	Scan Limit &1 (V)
VLIMIT2	POTEN	-6.00000E-001	F	Scan Limit &2 (V)
VFINAL	POTEN	0.00000E+000	T	Final &E (V)
SCANRATE	QUANT	4.99999E+001	&Scan Rate (mV/s)
STEPSIZE	QUANT	1.00000E+001	St&ep Size (mV)
CYCLES	IQUANT	4	C&ycles (#)
IMODE	SELECTOR	0	I/E Range &Mode
IRANGE	QUANT	1.00000E-005	&Max Current (mA)
AREA	QUANT	1.00000E+000	Electrode &Area (cm^2)
ELECTRODETYPE	SELECTOR	0	Electrode Type
STRIPPING	TOGGLE	F	Used for Stripping
POLARITY	TOGGLE	F	Signal Polarity
CONDIT	TWOPARAM	F	1.50000E+001	0.00000E+000	Conditionin&g	Time(s)	E(V)
DELAY	TWOPARAM	T	1.00000E+001	0.00000E+000	Init. De&lay	Time(s)	Stab.(mV/s)
EQDELAY	QUANT	5.00000E+000	Equil. &Time (s)
IRCOMP	SELECTOR	0	IRCom&p
PFCOR	QUANT	5.00000E+001	PF Corr. (ohm)
SAMPLINGMODE	SELECTOR	1	Sampling &Mode
OCVCURVE	TABLE	39
	Pt	T	Vf	Vm	Ach	Over	Temp
	#	s	V vs. Ref.	V	V	bits	deg C
	0	0.258333	-1.53217E-001	-1.53217E-001	2.53326E-004	..........a	-327.66
	1	0.516667	-1.53218E-001	-1.53250E-001	2.43526E-004	..........a	-327.66
	2	0.775	-1.53222E-001	-1.53285E-001	2.48859E-004	..........a	-327.66
	3	1.03333	-1.53233E-001	-1.53310E-001	2.56859E-004	..........a	-327.66
	4	1.29167	-1.53253E-001	-1.53355E-001	2.53926E-004	..........a	-327.66
	5	1.55	-1.53281E-001	-1.53387E-001	2.63526E-004	..........a	-327.66
	6	1.80833	-1.53313E-001	-1.53424E-001	2.53926E-004	..........a	-327.66
	7	2.06667	-1.53348E-001	-1.53454E-001	2.51126E-004	..........a	-327.66
	8	2.325	-1.53384E-001	-1.53483E-001	2.51592E-004	..........a	-327.66
	9	2.58333	-1.53418E-001	-1.53532E-001	2.57459E-004	..........a	-327.66
	10	2.84167	-1.53452E-001	-1.53555E-001	2.48792E-004	..........a	-327.66
	11	3.1	-1.53487E-001	-1.53591E-001	2.41859E-004	..........a	-327.66
	12	3.35833	-1.53521E-001	-1.53616E-001	2.57726E-004	..........a	-327.66
	13	3.61667	-1.53554E-001	-1.53647E-001	2.45926E-004	..........a	-327.66
	14	3.875	-1.53585E-001	-1.53694E-001	2.60126E-004	..........a	-327.66
	15	4.13333	-1.53617E-001	-1.53723E-001	2.52592E-004	..........a	-327.66
	16	4.39167	-1.53651E-001	-1.53759E-001	2.43126E-004	..........a	-327.66
	17	4.65	-1.53685E-001	-1.53784E-001	2.61059E-004	..........a	-327.66
	18	4.90833	-1.53720E-001	-1.53815E-001	2.44526E-004	..........a	-327.66
	19	5.16667	-1.53752E-001	-1.53852E-001	2.56326E-004	..........a	-327.66
	20	5.425	-1.53784E-001	-1.53880E-001	2.40659E-004	..........a	-327.66
	21	5.68333	-1.53815E-001	-1.53918E-001	2.54526E-004	..........a	-327.66
	22	5.94167	-1.53848E-001	-1.53944E-001	2.52059E-004	..........a	-327.66
	23	6.2	-1.53880E-001	-1.53967E-001	2.35992E-004	..........a	-327.66
	24	6.45833	-1.53911E-001	-1.54007E-001	2.49192E-004	..........a	-327.66
	25	6.71667	-1.53941E-001	-1.54039E-001	2.62259E-004	..........a	-327.66
	26	6.975	-1.53972E-001	-1.54078E-001	2.43592E-004	..........a	-327.66
	27	7.23333	-1.54004E-001	-1.54106E-001	2.61259E-004	..........a	-327.66
	28	7.49167	-1.54038E-001	-1.54132E-001	2.41192E-004	..........a	-327.66
	29	7.75	-1.54071E-001	-1.54181E-001	2.54259E-004	..........a	-327.66
	30	8.00833	-1.54104E-001	-1.54207E-001	2.53192E-004	..........a	-327.66
	31	8.26667	-1.54137E-001	-1.54242E-001	2.52526E-004	..........a	-327.66
	32	8.525	-1.54171E-001	-1.54264E-001	2.63059E-004	..........a	-327.66
	33	8.78333	-1.54204E-001	-1.54281E-001	2.38859E-004	..........a	-327.66
	34	9.04167	-1.54234E-001	-1.54323E-001	2.37592E-004	..........a	-327.66
	35	9.3	-1.54261E-001	-1.54346E-001	2.68392E-004	..........a	-327.66
	36	9.5583	-1.54288E-001	-1.54379E-001	2.42059E-004	..........a	-327.66
	37	9.8167	-1.54317E-001	-1.54413E-001	2.62859E-004	..........a	-327.66
	38	10.075	-1.54346E-001	-1.54429E-001	2.70992E-004	..........a	-327.66
EOC	QUANT	-0.1543461	Open Circuit (V)
PSTATMODEL	IQUANT	7	Pstat Model
PSTATSECTION	LABEL	REF600P-43058	Pstat Section
PSTATSERIALNO	LABEL	43058	Pstat Serial Number
CTRLMODE	IQUANT	1	Control Mode
ELECTROMETER	IQUANT	0	RE=0 or CS=1
IESTAB	IQUANT	2	I/E Stability
CASPEED	IQUANT	4	Control Amp Speed
CONVENTION	IQUANT	1	Current Convention
ICHRANGE	IQUANT	2	Ich Range
ICHRANGEMODE	TOGGLE	F	Ich Auto Range
ICHOFFSETENABLE	TOGGLE	F	Ich Offset Enable
ICHOFFSET	QUANT	0	Ich Offset (V)
ICHFILTER	IQUANT	2	Ich Filter
VCHRANGE	IQUANT	2	Vch Range
VCHRANGEMODE	TOGGLE	F	Vch Auto Range
VCHOFFSETENABLE	TOGGLE	F	Vch Offset Enable
VCHOFFSET	QUANT	0	Vch Offset (V)
VCHFILTER	IQUANT	2	Vch Filter
ACHRANGE	IQUANT	2	Ach Range
ACHOFFSETENABLE	TOGGLE	F	Ach Offset Enable
ACHOFFSET	QUANT	0	Ach Offset (V)
ACHFILTER	IQUANT	1	Ach Filter
IERANGELOWERLIMIT	IQUANT	1	I/E Range Lower Limit
IERANGEMODE	TOGGLE	T	I/E AutoRange
IERANGE	IQUANT	4	I/E Range
POSFEEDENABLE	TOGGLE	F	Positive Feedback IR Comp
POSFEEDRESISTANCE	QUANT	0	Positive Feedback Resistance (ohm)
ACHSELECT	IQUANT	4	Ach Select
SENSECABLEID	IQUANT	7	Sense Cable ID
PWRCABLEID	IQUANT	7	Power Cable ID
DCCALDATE	LABEL	3/22/2024	DC Calibration Date
ACCALDATE	LABEL	3/22/2024	AC Calibration Date
THERMOSELECT	IQUANT	1	Thermo Select
FRAMEWORKVERSION	LABEL	7.8.4	Framework Version
INSTRUMENTVERSION	LABEL	4.42	Instrument Version
CURVE1	TABLE
	Pt	T	Vf	Im	Vu	Sig	Ach	IERange	Over	Temp
	#	s	V vs. Ref.	A	V	V	V	#	bits	deg C
	0	0.2	-1.54194E-001	3.16288E-010	0.00000E+000	-1.54350E-001	1.00549E-003	5	..........a	-327.66
	3	0.8	-1.24341E-001	1.76614E-008	0.00000E+000	-1.24350E-001	1.00959E-003	5	..........a	-327.66
	6	1.4	-9.42887E-002	2.64376E-008	0.00000E+000	-9.43500E-002	1.02259E-003	5	..........a	-327.66
	9	2	-6.42701E-002	3.33443E-008	0.00000E+000	-6.43500E-002	1.02839E-003	5	..........a	-327.66
	12	2.6	-3.42356E-002	3.96547E-008	0.00000E+000	-3.43500E-002	9.96792E-004	5	..........a	-327.66
	15	3.2	-4.32451E-003	4.57755E-008	0.00000E+000	-4.35000E-003	1.00119E-003	5	..........a	-327.66
	18	3.8	2.56054E-002	5.18525E-008	0.00000E+000	2.56500E-002	1.03949E-003	5	..........a	-327.66
	21	4.4	5.56601E-002	5.80617E-008	0.00000E+000	5.56500E-002	1.02289E-003	5	..........a	-327.66
	24	5	8.57186E-002	6.43530E-008	0.00000E+000	8.56500E-002	9.99792E-004	5	..........a	-327.66
	27	5.6	1.15657E-001	7.06437E-008	0.00000E+000	1.15650E-001	9.99892E-004	5	..........a	-327.66
	30	6.2	1.45659E-001	7.70771E-008	0.00000E+000	1.45650E-001	1.02029E-003	5	..........a	-327.66
	33	6.8	1.75635E-001	8.34789E-008	0.00000E+000	1.75650E-001	1.00789E-003	5	..........a	-327.66
	36	7.4	2.05668E-001	8.98013E-008	0.00000E+000	2.05650E-001	1.01379E-003	5	..........a	-327.66
	39	8	2.35617E-001	9.60995E-008	0.00000E+000	2.35650E-001	1.01209E-003	5	..........a	-327.66
	42	8.6	2.65628E-001	1.02045E-007	0.00000E+000	2.65650E-001	1.00649E-003	5	..........a	-327.66
	45	9.2	2.95664E-001	1.07328E-007	0.00000E+000	2.95650E-001	1.02589E-003	5	..........a	-327.66
	48	9.8	3.25720E-001	1.12360E-007	0.00000E+000	3.25650E-001	1.01649E-003	5	..........a	-327.66
	51	10.4	3.55632E-001	1.17528E-007	0.00000E+000	3.55650E-001	1.02049E-003	5	..........a	-327.66
	54	11	3.85581E-001	1.22006E-007	0.00000E+000	3.85650E-001	1.02529E-003	5	..........a	-327.66
	57	11.6	4.15618E-001	1.27214E-007	0.00000E+000	4.15650E-001	1.01179E-003	5	..........a	-327.66
	60	12.2	4.45615E-001	1.32631E-007	0.00000E+000	4.45650E-001	1.00879E-003	5	..........a	-327.66
[...]
	1085	217.2	-4.99822E-001	-4.67181E-008	0.00000E+000	-5.00000E-001	1.01919E-003	5	..........a	-327.66
	1086	217.4	-4.89878E-001	-4.29793E-008	0.00000E+000	-4.90000E-001	1.01399E-003	5	..........a	-327.66
	1087	217.6	-4.79840E-001	-3.94293E-008	0.00000E+000	-4.80000E-001	1.03449E-003	5	..........a	-327.66
	1088	217.8	-4.69845E-001	-3.61628E-008	0.00000E+000	-4.70000E-001	9.95292E-004	5	..........a	-327.66
	1089	218	-4.59800E-001	-3.29923E-008	0.00000E+000	-4.60000E-001	1.02879E-003	5	..........a	-327.66
	1090	218.2	-4.49837E-001	-2.99927E-008	0.00000E+000	-4.50000E-001	1.03419E-003	5	..........a	-327.66
	1091	218.4	-4.39876E-001	-2.71537E-008	0.00000E+000	-4.40000E-001	9.97892E-004	5	..........a	-327.66
	1092	218.6	-4.29845E-001	-2.44092E-008	0.00000E+000	-4.30000E-001	1.03349E-003	5	..........a	-327.66
	1093	218.8	-4.19779E-001	-2.17948E-008	0.00000E+000	-4.20000E-001	9.95192E-004	5	..........a	-327.66
	1094	219	-4.09865E-001	-1.92752E-008	0.00000E+000	-4.10000E-001	1.00589E-003	5	..........a	-327.66
	1095	219.2	-3.99872E-001	-1.68536E-008	0.00000E+000	-4.00000E-001	1.00739E-003	5	..........a	-327.66
	1096	219.4	-3.89895E-001	-1.45047E-008	0.00000E+000	-3.90000E-001	1.01779E-003	5	..........a	-327.66
	1097	219.6	-3.79849E-001	-1.22233E-008	0.00000E+000	-3.80000E-001	1.01639E-003	5	..........a	-327.66
	1098	219.8	-3.69848E-001	-9.99323E-009	0.00000E+000	-3.70000E-001	9.90892E-004	5	..........a	-327.66
	1099	220	-3.59915E-001	-7.85280E-009	0.00000E+000	-3.60000E-001	1.01989E-003	5	..........a	-327.66
	1100	220.2	-3.49875E-001	-5.76629E-009	0.00000E+000	-3.50000E-001	1.01959E-003	5	..........a	-327.66
	1101	220.4	-3.39838E-001	-3.73194E-009	0.00000E+000	-3.40000E-001	1.01859E-003	5	..........a	-327.66
	1102	220.6	-3.29947E-001	-1.73684E-009	0.00000E+000	-3.30000E-001	1.01159E-003	5	..........a	-327.66
	1103	220.8	-3.19892E-001	2.36785E-010	0.00000E+000	-3.20000E-001	1.01949E-003	5	..........a	-327.66
	1104	221	-3.09945E-001	2.18572E-009	0.00000E+000	-3.10000E-001	1.02579E-003	5	..........a	-327.66
	1105	221.2	-2.99867E-001	4.06760E-009	0.00000E+000	-3.00000E-001	1.00329E-003	5	..........a	-327.66
	1106	221.4	-2.89936E-001	5.91649E-009	0.00000E+000	-2.90000E-001	1.05139E-003	5	..........a	-327.66
	1107	221.6	-2.79963E-001	7.75977E-009	0.00000E+000	-2.80000E-001	1.01299E-003	5	..........a	-327.66
	1108	221.8	-2.69882E-001	9.56155E-009	0.00000E+000	-2.70000E-001	1.00329E-003	5	..........a	-327.66
	1109	222	-2.59807E-001	1.13733E-008	0.00000E+000	-2.60000E-001	1.01199E-003	5	..........a	-327.66
	1110	222.2	-2.49928E-001	1.31338E-008	0.00000E+000	-2.50000E-001	1.02149E-003	5	..........a	-327.66
	1111	222.4	-2.39939E-001	1.48988E-008	0.00000E+000	-2.40000E-001	1.02659E-003	5	..........a	-327.66
	1112	222.6	-2.29937E-001	1.66440E-008	0.00000E+000	-2.30000E-001	1.01909E-003	5	..........a	-327.66
	1113	222.8	-2.19892E-001	1.83995E-008	0.00000E+000	-2.20000E-001	1.02079E-003	5	..........a	-327.66
	1114	223	-2.09929E-001	2.01204E-008	0.00000E+000	-2.10000E-001	1.02199E-003	5	..........a	-327.66
	1115	223.2	-1.99969E-001	2.18616E-008	0.00000E+000	-2.00000E-001	1.00369E-003	5	..........a	-327.66
	1116	223.4	-1.89998E-001	2.35845E-008	0.00000E+000	-1.90000E-001	9.99092E-004	5	..........a	-327.66
	1117	223.6	-1.79922E-001	2.53135E-008	0.00000E+000	-1.80000E-001	1.00919E-003	5	..........a	-327.66
	1118	223.8	-1.69901E-001	2.70515E-008	0.00000E+000	-1.70000E-001	1.01359E-003	5	..........a	-327.66
	1119	224	-1.60027E-001	2.87679E-008	0.00000E+000	-1.60000E-001	1.01849E-003	5	..........a	-327.66
	1120	224.2	-1.49967E-001	3.04994E-008	0.00000E+000	-1.50000E-001	1.01049E-003	5	..........a	-327.66