Folder: GamryParser/example_project/raw_outputs (part 6)

File: 20240321_ZQ_GM0016_HL03_E11_CV50.DTA
EXPLAIN
TAG	CV
TITLE	LABEL	Cyclic Voltammetry	Test &Identifier
DATE	LABEL	3/21/2024	Date
TIME	LABEL	18:54:49	Time
NOTES	NOTES	1	&Notes...

PSTAT	PSTAT	REF600P-43058	Potentiostat
VINIT	POTEN	0.00000E+000	T	Initial &E (V)
VLIMIT1	POTEN	-6.00000E-001	F	Scan Limit &1 (V)
VLIMIT2	POTEN	8.00000E-001	F	Scan Limit &2 (V)
VFINAL	POTEN	0.00000E+000	T	Final &E (V)
SCANRATE	QUANT	4.99999E+001	&Scan Rate (mV/s)
STEPSIZE	QUANT	1.00000E+001	St&ep Size (mV)
CYCLES	IQUANT	4	C&ycles (#)
IMODE	SELECTOR	1	I/E Range &Mode
IRANGE	QUANT	1.00000E-005	&Max Current (mA)
AREA	QUANT	1.00000E+000	Electrode &Area (cm^2)
ELECTRODETYPE	SELECTOR	0	Electrode Type
STRIPPING	TOGGLE	F	Used for Stripping
POLARITY	TOGGLE	F	Signal Polarity
CONDIT	TWOPARAM	F	1.50000E+001	0.00000E+000	Conditionin&g	Time(s)	E(V)
DELAY	TWOPARAM	T	1.00000E+001	0.00000E+000	Init. De&lay	Time(s)	Stab.(mV/s)
EQDELAY	QUANT	1.00000E+001	Equil. &Time (s)
IRCOMP	SELECTOR	0	IRCom&p
PFCOR	QUANT	5.00000E+001	PF Corr. (ohm)
SAMPLINGMODE	SELECTOR	1	Sampling &Mode
OCVCURVE	TABLE	39
	Pt	T	Vf	Vm	Ach	Over	Temp
	#	s	V vs. Ref.	V	V	bits	deg C
	0	0.258333	1.62218E-001	1.62218E-001	2.36556E-004	..........a	-327.66
	1	0.516667	1.62227E-001	1.62673E-001	2.53822E-004	..........a	-327.66
	2	0.775	1.62282E-001	1.63223E-001	2.38822E-004	..........a	-327.66
	3	1.03333	1.62449E-001	1.63829E-001	2.50289E-004	..........a	-327.66
	4	1.29167	1.62769E-001	1.64452E-001	2.52556E-004	..........a	-327.66
	5	1.55	1.63231E-001	1.65088E-001	2.56822E-004	..........a	-327.66
	6	1.80833	1.63790E-001	1.65733E-001	2.54356E-004	..........a	-327.66
	7	2.06667	1.64403E-001	1.66389E-001	2.48556E-004	..........a	-327.66
	8	2.325	1.65039E-001	1.67050E-001	2.50556E-004	..........a	-327.66
	9	2.58333	1.65687E-001	1.67701E-001	2.54556E-004	..........a	-327.66
	10	2.84167	1.66340E-001	1.68359E-001	2.53556E-004	..........a	-327.66
	11	3.1	1.66995E-001	1.69013E-001	2.54156E-004	..........a	-327.66
	12	3.35833	1.67651E-001	1.69668E-001	2.48689E-004	..........a	-327.66
	13	3.61667	1.68307E-001	1.70305E-001	2.56222E-004	..........a	-327.66
	14	3.875	1.68960E-001	1.70964E-001	2.45689E-004	..........a	-327.66
	15	4.13333	1.69611E-001	1.71611E-001	2.50022E-004	..........a	-327.66
	16	4.39167	1.70261E-001	1.72259E-001	2.44089E-004	..........a	-327.66
	17	4.65	1.70911E-001	1.72900E-001	2.45489E-004	..........a	-327.66
	18	4.90833	1.71559E-001	1.73543E-001	2.61422E-004	..........a	-327.66
	19	5.16667	1.72206E-001	1.74181E-001	2.67822E-004	..........a	-327.66
	20	5.425	1.72850E-001	1.74821E-001	2.58022E-004	..........a	-327.66
	21	5.68333	1.73491E-001	1.75447E-001	2.49022E-004	..........a	-327.66
	22	5.94167	1.74130E-001	1.76085E-001	2.65822E-004	..........a	-327.66
	23	6.2	1.74767E-001	1.76716E-001	2.38156E-004	..........a	-327.66
	24	6.45833	1.75401E-001	1.77342E-001	2.39089E-004	..........a	-327.66
	25	6.71667	1.76033E-001	1.77963E-001	2.39156E-004	..........a	-327.66
	26	6.975	1.76664E-001	1.78586E-001	2.41889E-004	..........a	-327.66
	27	7.23333	1.77291E-001	1.79205E-001	2.48956E-004	..........a	-327.66
	28	7.49167	1.77915E-001	1.79826E-001	2.42422E-004	..........a	-327.66
	29	7.75	1.78536E-001	1.80435E-001	2.48489E-004	..........a	-327.66
	30	8.00833	1.79156E-001	1.81041E-001	2.55622E-004	..........a	-327.66
	31	8.26667	1.79772E-001	1.81651E-001	2.46622E-004	..........a	-327.66
	32	8.525	1.80385E-001	1.82256E-001	2.51889E-004	..........a	-327.66
	33	8.78333	1.80995E-001	1.82868E-001	2.43556E-004	..........a	-327.66
	34	9.04167	1.81603E-001	1.83462E-001	2.48756E-004	..........a	-327.66
	35	9.3	1.82209E-001	1.84060E-001	2.48289E-004	..........a	-327.66
	36	9.5583	1.82813E-001	1.84654E-001	2.43756E-004	..........a	-327.66
	37	9.8167	1.83414E-001	1.85246E-001	2.50022E-004	..........a	-327.66
	38	10.075	1.84011E-001	1.85828E-001	2.51022E-004	..........a	-327.66
EOC	QUANT	0.1840114	Open Circuit (V)
PSTATMODEL	IQUANT	7	Pstat Model
PSTATSECTION	LABEL	REF600P-43058	Pstat Section
PSTATSERIALNO	LABEL	43058	Pstat Serial Number
CTRLMODE	IQUANT	1	Control Mode
ELECTROMETER	IQUANT	0	RE=0 or CS=1
IESTAB	IQUANT	2	I/E Stability
CASPEED	IQUANT	4	Control Amp Speed
CONVENTION	IQUANT	1	Current Convention
ICHRANGE	IQUANT	2	Ich Range
ICHRANGEMODE	TOGGLE	F	Ich Auto Range
ICHOFFSETENABLE	TOGGLE	F	Ich Offset Enable
ICHOFFSET	QUANT	0	Ich Offset (V)
ICHFILTER	IQUANT	2	Ich Filter
VCHRANGE	IQUANT	2	Vch Range
VCHRANGEMODE	TOGGLE	F	Vch Auto Range
VCHOFFSETENABLE	TOGGLE	F	Vch Offset Enable
VCHOFFSET	QUANT	0	Vch Offset (V)
VCHFILTER	IQUANT	2	Vch Filter
ACHRANGE	IQUANT	2	Ach Range
ACHOFFSETENABLE	TOGGLE	F	Ach Offset Enable
ACHOFFSET	QUANT	0	Ach Offset (V)
ACHFILTER	IQUANT	1	Ach Filter
IERANGELOWERLIMIT	IQUANT	1	I/E Range Lower Limit
IERANGEMODE	TOGGLE	F	I/E AutoRange
IERANGE	IQUANT	4	I/E Range
POSFEEDENABLE	TOGGLE	F	Positive Feedback IR Comp
POSFEEDRESISTANCE	QUANT	0	Positive Feedback Resistance (ohm)
ACHSELECT	IQUANT	4	Ach Select
SENSECABLEID	IQUANT	7	Sense Cable ID
PWRCABLEID	IQUANT	7	Power Cable ID
DCCALDATE	LABEL	12/18/2023	DC Calibration Date
ACCALDATE	LABEL	12/18/2023	AC Calibration Date
THERMOSELECT	IQUANT	1	Thermo Select
FRAMEWORKVERSION	LABEL	7.8.4	Framework Version
INSTRUMENTVERSION	LABEL	4.42	Instrument Version
CURVE1	TABLE
	Pt	T	Vf	Im	Vu	Sig	Ach	IERange	Over	Temp
	#	s	V vs. Ref.	A	V	V	V	#	bits	deg C
	0	0.2	1.84032E-001	1.61254E-011	0.00000E+000	1.84000E-001	1.01782E-003	4	..........a	-327.66
	3	0.8	1.54063E-001	-5.73754E-011	0.00000E+000	1.54000E-001	1.00092E-003	4	..........a	-327.66
	6	1.4	1.24009E-001	-9.15567E-011	0.00000E+000	1.24000E-001	1.03822E-003	4	..........a	-327.66
	9	2	9.39756E-002	-1.15322E-010	0.00000E+000	9.40000E-002	1.02452E-003	4	..........a	-327.66
	12	2.6	6.39521E-002	-1.35062E-010	0.00000E+000	6.40000E-002	1.01432E-003	4	..........a	-327.66
	15	3.2	3.40649E-002	-1.51950E-010	0.00000E+000	3.40000E-002	1.00032E-003	4	..........a	-327.66
	18	3.8	4.07464E-003	-1.68242E-010	0.00000E+000	4.00000E-003	1.02592E-003	4	..........a	-327.66
	21	4.4	-2.60108E-002	-1.84754E-010	0.00000E+000	-2.60000E-002	1.00632E-003	4	..........a	-327.66
	24	5	-5.60269E-002	-2.02011E-010	0.00000E+000	-5.60000E-002	1.02552E-003	4	..........a	-327.66
	27	5.6	-8.59131E-002	-2.21795E-010	0.00000E+000	-8.60000E-002	1.03182E-003	4	..........a	-327.66
	30	6.2	-1.15949E-001	-2.41796E-010	0.00000E+000	-1.16000E-001	1.01272E-003	4	..........a	-327.66
	33	6.8	-1.45946E-001	-2.63038E-010	0.00000E+000	-1.46000E-001	1.03032E-003	4	..........a	-327.66
	36	7.4	-1.75951E-001	-2.92361E-010	0.00000E+000	-1.76000E-001	1.01012E-003	4	..........a	-327.66
	39	8	-2.05923E-001	-3.15703E-010	0.00000E+000	-2.06000E-001	9.83222E-004	4	..........a	-327.66
	42	8.6	-2.35861E-001	-3.44762E-010	0.00000E+000	-2.36000E-001	1.01772E-003	4	..........a	-327.66
	45	9.2	-2.65892E-001	-3.77025E-010	0.00000E+000	-2.66000E-001	1.01232E-003	4	..........a	-327.66
	48	9.8	-2.95925E-001	-4.16154E-010	0.00000E+000	-2.96000E-001	1.01182E-003	4	..........a	-327.66
	51	10.4	-3.25904E-001	-4.53580E-010	0.00000E+000	-3.26000E-001	1.00202E-003	4	..........a	-327.66
	54	11	-3.55886E-001	-4.95380E-010	0.00000E+000	-3.56000E-001	1.01572E-003	4	..........a	-327.66
	57	11.6	-3.85953E-001	-5.46001E-010	0.00000E+000	-3.86000E-001	1.00622E-003	4	..........a	-327.66
	60	12.2	-4.15869E-001	-5.95395E-010	0.00000E+000	-4.16000E-001	9.95022E-004	4	..........a	-327.66
[...]
	1085	217.2	5.29900E-001	-1.10058E-010	0.00000E+000	5.30000E-001	9.96722E-004	4	..........a	-327.66
	1086	217.4	5.19959E-001	-1.18067E-010	0.00000E+000	5.20000E-001	1.02112E-003	4	..........a	-327.66
	1087	217.6	5.09894E-001	-1.25753E-010	0.00000E+000	5.10000E-001	9.96122E-004	4	..........a	-327.66
	1088	217.8	5.00033E-001	-1.33631E-010	0.00000E+000	5.00000E-001	1.03212E-003	4	..........a	-327.66
	1089	218	4.89932E-001	-1.40665E-010	0.00000E+000	4.90000E-001	9.81522E-004	4	..........a	-327.66
	1090	218.2	4.79968E-001	-1.48108E-010	0.00000E+000	4.80000E-001	1.02712E-003	4	..........a	-327.66
	1091	218.4	4.69959E-001	-1.54579E-010	0.00000E+000	4.70000E-001	9.91722E-004	4	..........a	-327.66
	1092	218.6	4.60007E-001	-1.62343E-010	0.00000E+000	4.60000E-001	9.96322E-004	4	..........a	-327.66
	1093	218.8	4.49963E-001	-1.68405E-010	0.00000E+000	4.50000E-001	1.00002E-003	4	..........a	-327.66
	1094	219	4.39957E-001	-1.75403E-010	0.00000E+000	4.40000E-001	1.01072E-003	4	..........a	-327.66
	1095	219.2	4.29962E-001	-1.81386E-010	0.00000E+000	4.30000E-001	1.00222E-003	4	..........a	-327.66
	1096	219.4	4.20023E-001	-1.88077E-010	0.00000E+000	4.20000E-001	1.01972E-003	4	..........a	-327.66
	1097	219.6	4.09937E-001	-1.94637E-010	0.00000E+000	4.10000E-001	9.92522E-004	4	..........a	-327.66
	1098	219.8	3.99903E-001	-2.00698E-010	0.00000E+000	4.00000E-001	9.97922E-004	4	..........a	-327.66
	1099	220	3.89958E-001	-2.06974E-010	0.00000E+000	3.90000E-001	1.01382E-003	4	..........a	-327.66
	1100	220.2	3.80003E-001	-2.12174E-010	0.00000E+000	3.80000E-001	9.97522E-004	4	..........a	-327.66
	1101	220.4	3.69994E-001	-2.17820E-010	0.00000E+000	3.70000E-001	1.00602E-003	4	..........a	-327.66
	1102	220.6	3.59995E-001	-2.23619E-010	0.00000E+000	3.60000E-001	1.02102E-003	4	..........a	-327.66
	1103	220.8	3.49988E-001	-2.29320E-010	0.00000E+000	3.50000E-001	1.00602E-003	4	..........a	-327.66
	1104	221	3.40052E-001	-2.33990E-010	0.00000E+000	3.40000E-001	9.86922E-004	4	..........a	-327.66
	1105	221.2	3.29975E-001	-2.39371E-010	0.00000E+000	3.30000E-001	9.92322E-004	4	..........a	-327.66
	1106	221.4	3.20023E-001	-2.44243E-010	0.00000E+000	3.20000E-001	1.02242E-003	4	..........a	-327.66
	1107	221.6	3.09975E-001	-2.49995E-010	0.00000E+000	3.10000E-001	1.01012E-003	4	..........a	-327.66
	1108	221.8	3.00017E-001	-2.55219E-010	0.00000E+000	3.00000E-001	1.02112E-003	4	..........a	-327.66
	1109	222	2.90003E-001	-2.59623E-010	0.00000E+000	2.90000E-001	1.00062E-003	4	..........a	-327.66
	1110	222.2	2.79883E-001	-2.63660E-010	0.00000E+000	2.80000E-001	1.00932E-003	4	..........a	-327.66
	1111	222.4	2.70014E-001	-2.66442E-010	0.00000E+000	2.70000E-001	9.98322E-004	4	..........a	-327.66
	1112	222.6	2.60038E-001	-2.71486E-010	0.00000E+000	2.60000E-001	1.01162E-003	4	..........a	-327.66
	1113	222.8	2.50012E-001	-2.78750E-010	0.00000E+000	2.50000E-001	9.85222E-004	4	..........a	-327.66
	1114	223	2.39985E-001	-2.83367E-010	0.00000E+000	2.40000E-001	1.00372E-003	4	..........a	-327.66
	1115	223.2	2.29987E-001	-2.88017E-010	0.00000E+000	2.30000E-001	1.00202E-003	4	..........a	-327.66
	1116	223.4	2.20035E-001	-2.90220E-010	0.00000E+000	2.20000E-001	9.99322E-004	4	..........a	-327.66
	1117	223.6	2.10010E-001	-2.91972E-010	0.00000E+000	2.10000E-001	9.78522E-004	4	..........a	-327.66
	1118	223.8	2.00067E-001	-2.92611E-010	0.00000E+000	2.00000E-001	1.03182E-003	4	..........a	-327.66
	1119	224	1.90066E-001	-2.93570E-010	0.00000E+000	1.90000E-001	9.90422E-004	4	..........a	-327.66
	1120	224.2	1.80107E-001	-2.93983E-010	0.00000E+000	1.80000E-001	1.00932E-003	4	..........a	-327.66

File: 20240321_ZV_GM0016_HL03_E12_CV50k.DTA
EXPLAIN
TAG	CV
TITLE	LABEL	Cyclic Voltammetry	Test &Identifier
DATE	LABEL	3/21/2024	Date
TIME	LABEL	19:15:17	Time
NOTES	NOTES	1	&Notes...

PSTAT	PSTAT	REF600P-43058	Potentiostat
VINIT	POTEN	0.00000E+000	T	Initial &E (V)
VLIMIT1	POTEN	-6.00000E-001	F	Scan Limit &1 (V)
VLIMIT2	POTEN	8.00000E-001	F	Scan Limit &2 (V)
VFINAL	POTEN	0.00000E+000	T	Final &E (V)
SCANRATE	QUANT	4.99999E+004	&Scan Rate (mV/s)
STEPSIZE	QUANT	1.00000E+001	St&ep Size (mV)
CYCLES	IQUANT	10	C&ycles (#)
IMODE	SELECTOR	1	I/E Range &Mode
IRANGE	QUANT	1.00000E-005	&Max Current (mA)
AREA	QUANT	1.00000E+000	Electrode &Area (cm^2)
ELECTRODETYPE	SELECTOR	0	Electrode Type
STRIPPING	TOGGLE	F	Used for Stripping
POLARITY	TOGGLE	F	Signal Polarity
CONDIT	TWOPARAM	F	1.50000E+001	0.00000E+000	Conditionin&g	Time(s)	E(V)
DELAY	TWOPARAM	T	1.00000E+001	0.00000E+000	Init. De&lay	Time(s)	Stab.(mV/s)
EQDELAY	QUANT	1.00000E+001	Equil. &Time (s)
IRCOMP	SELECTOR	0	IRCom&p
PFCOR	QUANT	5.00000E+001	PF Corr. (ohm)
SAMPLINGMODE	SELECTOR	1	Sampling &Mode
OCVCURVE	TABLE	39
	Pt	T	Vf	Vm	Ach	Over	Temp
	#	s	V vs. Ref.	V	V	bits	deg C
	0	0.258333	3.23997E-001	3.23997E-001	2.48089E-004	..........a	-327.66
	1	0.516667	3.23997E-001	3.24014E-001	2.41089E-004	..........a	-327.66
	2	0.775	3.24000E-001	3.24077E-001	2.52356E-004	..........a	-327.66
	3	1.03333	3.24013E-001	3.24202E-001	2.45556E-004	..........a	-327.66
	4	1.29167	3.24046E-001	3.24299E-001	2.37022E-004	..........a	-327.66
	5	1.55	3.24106E-001	3.24383E-001	2.45556E-004	..........a	-327.66
	6	1.80833	3.24189E-001	3.24517E-001	2.26422E-004	..........a	-327.66
	7	2.06667	3.24286E-001	3.24644E-001	2.41489E-004	..........a	-327.66
	8	2.325	3.24394E-001	3.24750E-001	2.36489E-004	..........a	-327.66
	9	2.58333	3.24508E-001	3.24857E-001	2.37822E-004	..........a	-327.66
	10	2.84167	3.24624E-001	3.24951E-001	2.45489E-004	..........a	-327.66
	11	3.1	3.24736E-001	3.25044E-001	2.47156E-004	..........a	-327.66
	12	3.35833	3.24842E-001	3.25140E-001	2.34022E-004	..........a	-327.66
	13	3.61667	3.24944E-001	3.25337E-001	2.42622E-004	..........a	-327.66
	14	3.875	3.25053E-001	3.25547E-001	2.43289E-004	..........a	-327.66
	15	4.13333	3.25181E-001	3.25617E-001	2.38422E-004	..........a	-327.66
	16	4.39167	3.25325E-001	3.25635E-001	2.39489E-004	..........a	-327.66
	17	4.65	3.25461E-001	3.25686E-001	2.40222E-004	..........a	-327.66
	18	4.90833	3.25566E-001	3.25780E-001	2.42556E-004	..........a	-327.66
	19	5.16667	3.25643E-001	3.25889E-001	2.33156E-004	..........a	-327.66
	20	5.425	3.25711E-001	3.25954E-001	2.36422E-004	..........a	-327.66
	21	5.68333	3.25787E-001	3.26068E-001	2.41356E-004	..........a	-327.66
	22	5.94167	3.25872E-001	3.26212E-001	2.42689E-004	..........a	-327.66
	23	6.2	3.25968E-001	3.26329E-001	2.49156E-004	..........a	-327.66
	24	6.45833	3.26076E-001	3.26447E-001	2.58022E-004	..........a	-327.66
	25	6.71667	3.26194E-001	3.26561E-001	2.32156E-004	..........a	-327.66
	26	6.975	3.26315E-001	3.26666E-001	2.39956E-004	..........a	-327.66
	27	7.23333	3.26434E-001	3.26808E-001	2.37889E-004	..........a	-327.66
	28	7.49167	3.26554E-001	3.27039E-001	2.28689E-004	..........a	-327.66
	29	7.75	3.26685E-001	3.27178E-001	2.42689E-004	..........a	-327.66
	30	8.00833	3.26832E-001	3.27219E-001	2.45089E-004	..........a	-327.66
	31	8.26667	3.26980E-001	3.27244E-001	2.49422E-004	..........a	-327.66
	32	8.525	3.27104E-001	3.27314E-001	2.44422E-004	..........a	-327.66
	33	8.78333	3.27194E-001	3.27418E-001	2.46556E-004	..........a	-327.66
	34	9.04167	3.27264E-001	3.27494E-001	2.32556E-004	..........a	-327.66
	35	9.3	3.27333E-001	3.27608E-001	2.37756E-004	..........a	-327.66
	36	9.5583	3.27412E-001	3.27736E-001	2.35956E-004	..........a	-327.66
	37	9.8167	3.27504E-001	3.27875E-001	2.40289E-004	..........a	-327.66
	38	10.075	3.27612E-001	3.27980E-001	2.43889E-004	..........a	-327.66
EOC	QUANT	0.3276116	Open Circuit (V)
PSTATMODEL	IQUANT	7	Pstat Model
PSTATSECTION	LABEL	REF600P-43058	Pstat Section
PSTATSERIALNO	LABEL	43058	Pstat Serial Number
CTRLMODE	IQUANT	1	Control Mode
ELECTROMETER	IQUANT	0	RE=0 or CS=1
IESTAB	IQUANT	2	I/E Stability
CASPEED	IQUANT	4	Control Amp Speed
CONVENTION	IQUANT	1	Current Convention
ICHRANGE	IQUANT	2	Ich Range
ICHRANGEMODE	TOGGLE	F	Ich Auto Range
ICHOFFSETENABLE	TOGGLE	F	Ich Offset Enable
ICHOFFSET	QUANT	0	Ich Offset (V)
ICHFILTER	IQUANT	1	Ich Filter
VCHRANGE	IQUANT	2	Vch Range
VCHRANGEMODE	TOGGLE	F	Vch Auto Range
VCHOFFSETENABLE	TOGGLE	F	Vch Offset Enable
VCHOFFSET	QUANT	0	Vch Offset (V)
VCHFILTER	IQUANT	1	Vch Filter
ACHRANGE	IQUANT	2	Ach Range
ACHOFFSETENABLE	TOGGLE	F	Ach Offset Enable
ACHOFFSET	QUANT	0	Ach Offset (V)
ACHFILTER	IQUANT	1	Ach Filter
IERANGELOWERLIMIT	IQUANT	1	I/E Range Lower Limit
IERANGEMODE	TOGGLE	F	I/E AutoRange
IERANGE	IQUANT	4	I/E Range
POSFEEDENABLE	TOGGLE	F	Positive Feedback IR Comp
POSFEEDRESISTANCE	QUANT	0	Positive Feedback Resistance (ohm)
ACHSELECT	IQUANT	4	Ach Select
SENSECABLEID	IQUANT	7	Sense Cable ID
PWRCABLEID	IQUANT	7	Power Cable ID
DCCALDATE	LABEL	12/18/2023	DC Calibration Date
ACCALDATE	LABEL	12/18/2023	AC Calibration Date
THERMOSELECT	IQUANT	1	Thermo Select
FRAMEWORKVERSION	LABEL	7.8.4	Framework Version
INSTRUMENTVERSION	LABEL	4.42	Instrument Version
CURVE1	TABLE
	Pt	T	Vf	Im	Vu	Sig	Ach	IERange	Over	Temp
	#	s	V vs. Ref.	A	V	V	V	#	bits	deg C
	0	0.0002	3.27570E-001	3.87891E-011	0.00000E+000	3.27600E-001	8.00223E-005	4	..........a	-327.66
	3	0.0008	2.97670E-001	-8.82158E-011	0.00000E+000	2.97600E-001	8.00223E-005	4	..........a	-327.66
	6	0.0014	2.67670E-001	-2.62222E-010	0.00000E+000	2.67600E-001	8.00223E-005	4	..........a	-327.66
	9	0.002	2.37670E-001	-4.58230E-010	0.00000E+000	2.37600E-001	8.00223E-005	4	..........a	-327.66
	12	0.0026	2.07570E-001	-6.80238E-010	0.00000E+000	2.07600E-001	8.00223E-005	4	..........a	-327.66
	15	0.0032	1.77570E-001	-9.35248E-010	0.00000E+000	1.77600E-001	8.00223E-005	4	..........a	-327.66
	18	0.0038	1.47370E-001	-1.20326E-009	0.00000E+000	1.47600E-001	8.00223E-005	4	..........a	-327.66
	21	0.0044	1.17870E-001	-1.50227E-009	0.00000E+000	1.17600E-001	8.00223E-005	4	..........a	-327.66
	24	0.005	8.75695E-002	-1.82828E-009	0.00000E+000	8.76000E-002	8.00223E-005	4	..........a	-327.66
	27	0.0056	5.77695E-002	-2.17530E-009	0.00000E+000	5.76000E-002	8.00223E-005	4	..........a	-327.66
	30	0.0062	2.76695E-002	-2.54431E-009	0.00000E+000	2.76000E-002	8.00223E-005	4	..........a	-327.66
	33	0.0068	-2.33048E-003	-2.93933E-009	0.00000E+000	-2.40000E-003	8.00223E-005	4	..........a	-327.66
	36	0.0074	-3.23305E-002	-3.36634E-009	0.00000E+000	-3.24000E-002	8.00223E-005	4	..........a	-327.66
	39	0.008	-6.25305E-002	-3.80936E-009	0.00000E+000	-6.24000E-002	8.00223E-005	4	..........a	-327.66
	42	0.0086	-9.21305E-002	-4.28538E-009	0.00000E+000	-9.24000E-002	8.00223E-005	4	..........a	-327.66
	45	0.0092	-1.22330E-001	-4.78140E-009	0.00000E+000	-1.22400E-001	8.00223E-005	4	..........a	-327.66
	48	0.0098	-1.52330E-001	-5.29442E-009	0.00000E+000	-1.52400E-001	8.00223E-005	4	..........a	-327.66
	51	0.0104	-1.82430E-001	-5.83044E-009	0.00000E+000	-1.82400E-001	-3.19978E-004	4	..........a	-327.66
	54	0.011	-2.12430E-001	-6.38646E-009	0.00000E+000	-2.12400E-001	8.00223E-005	4	..........a	-327.66
	57	0.0116	-2.42430E-001	-6.96048E-009	0.00000E+000	-2.42400E-001	8.00223E-005	4	..........a	-327.66
[...]
	2765	0.5532	6.79869E-001	9.95017E-009	0.00000E+000	6.80000E-001	8.00223E-005	4	..........a	-327.66
	2766	0.5534	6.69869E-001	9.94617E-009	0.00000E+000	6.70000E-001	8.00223E-005	4	..........a	-327.66
	2767	0.5536	6.59869E-001	9.93217E-009	0.00000E+000	6.60000E-001	8.00223E-005	4	..........a	-327.66
	2768	0.5538	6.50069E-001	9.91017E-009	0.00000E+000	6.50000E-001	8.00223E-005	4	..........a	-327.66
	2769	0.554	6.39669E-001	9.88817E-009	0.00000E+000	6.40000E-001	8.00223E-005	4	..........a	-327.66
	2770	0.5542	6.29969E-001	9.85517E-009	0.00000E+000	6.30000E-001	8.00223E-005	4	..........a	-327.66
	2771	0.5544	6.20070E-001	9.81816E-009	0.00000E+000	6.20000E-001	8.00223E-005	4	..........a	-327.66
	2772	0.5546	6.09869E-001	9.77416E-009	0.00000E+000	6.10000E-001	8.00223E-005	4	..........a	-327.66
	2773	0.5548	5.99970E-001	9.72616E-009	0.00000E+000	6.00000E-001	-2.19978E-004	4	..........a	-327.66
	2774	0.555	5.89969E-001	9.67816E-009	0.00000E+000	5.90000E-001	8.00223E-005	4	..........a	-327.66
	2775	0.5552	5.80069E-001	9.62616E-009	0.00000E+000	5.80000E-001	8.00223E-005	4	..........a	-327.66
	2776	0.5554	5.69969E-001	9.56615E-009	0.00000E+000	5.70000E-001	8.00223E-005	4	..........a	-327.66
	2777	0.5556	5.59770E-001	9.50415E-009	0.00000E+000	5.60000E-001	8.00223E-005	4	..........a	-327.66
	2778	0.5558	5.49969E-001	9.43815E-009	0.00000E+000	5.50000E-001	8.00223E-005	4	..........a	-327.66
	2779	0.556	5.40069E-001	9.37215E-009	0.00000E+000	5.40000E-001	8.00223E-005	4	..........a	-327.66
	2780	0.5562	5.29970E-001	9.29914E-009	0.00000E+000	5.30000E-001	8.00223E-005	4	..........a	-327.66
	2781	0.5564	5.19969E-001	9.22414E-009	0.00000E+000	5.20000E-001	8.00223E-005	4	..........a	-327.66
	2782	0.5566	5.09969E-001	9.14614E-009	0.00000E+000	5.10000E-001	8.00223E-005	4	..........a	-327.66
	2783	0.5568	4.99970E-001	9.06814E-009	0.00000E+000	5.00000E-001	8.00223E-005	4	..........a	-327.66
	2784	0.557	4.89970E-001	8.98413E-009	0.00000E+000	4.90000E-001	8.00223E-005	4	..........a	-327.66
	2785	0.5572	4.79720E-001	8.88913E-009	0.00000E+000	4.80000E-001	8.00223E-005	4	..........a	-327.66
	2786	0.5574	4.69970E-001	8.79613E-009	0.00000E+000	4.70000E-001	-1.19978E-004	4	..........a	-327.66
	2787	0.5576	4.60070E-001	8.70812E-009	0.00000E+000	4.60000E-001	8.00223E-005	4	..........a	-327.66
	2788	0.5578	4.49870E-001	8.61112E-009	0.00000E+000	4.50000E-001	8.00223E-005	4	..........a	-327.66
	2789	0.558	4.39820E-001	8.51311E-009	0.00000E+000	4.40000E-001	8.00223E-005	4	..........a	-327.66
	2790	0.5582	4.29870E-001	8.41211E-009	0.00000E+000	4.30000E-001	8.00223E-005	4	..........a	-327.66
	2791	0.5584	4.19970E-001	8.30711E-009	0.00000E+000	4.20000E-001	8.00223E-005	4	..........a	-327.66
	2792	0.5586	4.09970E-001	8.19810E-009	0.00000E+000	4.10000E-001	8.00223E-005	4	..........a	-327.66
	2793	0.5588	3.99970E-001	8.09210E-009	0.00000E+000	4.00000E-001	8.00223E-005	4	..........a	-327.66
	2794	0.559	3.90070E-001	7.97309E-009	0.00000E+000	3.90000E-001	8.00223E-005	4	..........a	-327.66
	2795	0.5592	3.79970E-001	7.86209E-009	0.00000E+000	3.80000E-001	8.00223E-005	4	..........a	-327.66
	2796	0.5594	3.69970E-001	7.74009E-009	0.00000E+000	3.70000E-001	8.00223E-005	4	..........a	-327.66
	2797	0.5596	3.59970E-001	7.62008E-009	0.00000E+000	3.60000E-001	8.00223E-005	4	..........a	-327.66
	2798	0.5598	3.49870E-001	7.50008E-009	0.00000E+000	3.50000E-001	8.00223E-005	4	..........a	-327.66
	2799	0.56	3.40070E-001	7.37307E-009	0.00000E+000	3.40000E-001	8.00223E-005	4	..........a	-327.66
	2800	0.5602	3.29970E-001	7.24207E-009	0.00000E+000	3.30000E-001	8.00223E-005	4	..........a	-327.66