Folder: GamryParser/example_project/raw_outputs (part 10)

File: 20240424_P_GM0016_HL03_E04_CV50K.DTA
EXPLAIN
TAG	CV
TITLE	LABEL	Cyclic Voltammetry	Test &Identifier
DATE	LABEL	4/24/2024	Date
TIME	LABEL	17:38:59	Time
NOTES	NOTES	1	&Notes...

PSTAT	PSTAT	REF600P-43058	Potentiostat
VINIT	POTEN	0.00000E+000	T	Initial &E (V)
VLIMIT1	POTEN	-6.00000E-001	F	Scan Limit &1 (V)
VLIMIT2	POTEN	8.00000E-001	F	Scan Limit &2 (V)
VFINAL	POTEN	0.00000E+000	T	Final &E (V)
SCANRATE	QUANT	4.99999E+004	&Scan Rate (mV/s)
STEPSIZE	QUANT	1.00000E+001	St&ep Size (mV)
CYCLES	IQUANT	10	C&ycles (#)
IMODE	SELECTOR	0	I/E Range &Mode
IRANGE	QUANT	1.00000E-005	&Max Current (mA)
AREA	QUANT	1.00000E+000	Electrode &Area (cm^2)
ELECTRODETYPE	SELECTOR	0	Electrode Type
STRIPPING	TOGGLE	F	Used for Stripping
POLARITY	TOGGLE	F	Signal Polarity
CONDIT	TWOPARAM	F	1.50000E+001	0.00000E+000	Conditionin&g	Time(s)	E(V)
DELAY	TWOPARAM	T	1.00000E+001	0.00000E+000	Init. De&lay	Time(s)	Stab.(mV/s)
EQDELAY	QUANT	1.00000E+001	Equil. &Time (s)
IRCOMP	SELECTOR	0	IRCom&p
PFCOR	QUANT	5.00000E+001	PF Corr. (ohm)
SAMPLINGMODE	SELECTOR	1	Sampling &Mode
OCVCURVE	TABLE	39
	Pt	T	Vf	Vm	Ach	Over	Temp
	#	s	V vs. Ref.	V	V	bits	deg C
	0	0.258333	-9.81252E-002	-9.81252E-002	2.14792E-004	..........a	-327.66
	1	0.516667	-9.81308E-002	-9.84170E-002	2.15459E-004	..........a	-327.66
	2	0.775	-9.81653E-002	-9.87107E-002	2.11192E-004	..........a	-327.66
	3	1.03333	-9.82643E-002	-9.89974E-002	2.20859E-004	..........a	-327.66
	4	1.29167	-9.84439E-002	-9.92800E-002	2.14859E-004	..........a	-327.66
	5	1.55	-9.86873E-002	-9.95547E-002	2.16259E-004	..........a	-327.66
	6	1.80833	-9.89630E-002	-9.98310E-002	2.14126E-004	..........a	-327.66
	7	2.06667	-9.92473E-002	-1.00100E-001	2.15059E-004	..........a	-327.66
	8	2.325	-9.95289E-002	-1.00359E-001	2.07926E-004	..........a	-327.66
	9	2.58333	-9.98045E-002	-1.00627E-001	2.06192E-004	..........a	-327.66
	10	2.84167	-1.00075E-001	-1.00882E-001	2.14526E-004	..........a	-327.66
	11	3.1	-1.00340E-001	-1.01141E-001	2.18659E-004	..........a	-327.66
	12	3.35833	-1.00602E-001	-1.01388E-001	2.12059E-004	..........a	-327.66
	13	3.61667	-1.00861E-001	-1.01632E-001	2.08926E-004	..........a	-327.66
	14	3.875	-1.01115E-001	-1.01878E-001	2.11592E-004	..........a	-327.66
	15	4.13333	-1.01366E-001	-1.02120E-001	2.11059E-004	..........a	-327.66
	16	4.39167	-1.01613E-001	-1.02363E-001	2.19459E-004	..........a	-327.66
	17	4.65	-1.01857E-001	-1.02591E-001	2.22259E-004	..........a	-327.66
	18	4.90833	-1.02098E-001	-1.02764E-001	2.17592E-004	..........a	-327.66
	19	5.16667	-1.02329E-001	-1.02902E-001	2.19926E-004	..........a	-327.66
	20	5.425	-1.02540E-001	-1.03028E-001	2.04859E-004	..........a	-327.66
	21	5.68333	-1.02722E-001	-1.03138E-001	2.25259E-004	..........a	-327.66
	22	5.94167	-1.02877E-001	-1.03249E-001	2.06326E-004	..........a	-327.66
	23	6.2	-1.03010E-001	-1.03369E-001	2.10592E-004	..........a	-327.66
	24	6.45833	-1.03130E-001	-1.03474E-001	2.25326E-004	..........a	-327.66
	25	6.71667	-1.03245E-001	-1.03609E-001	2.15859E-004	..........a	-327.66
	26	6.975	-1.03359E-001	-1.03732E-001	2.11926E-004	..........a	-327.66
	27	7.23333	-1.03477E-001	-1.03858E-001	2.17059E-004	..........a	-327.66
	28	7.49167	-1.03598E-001	-1.03992E-001	2.09592E-004	..........a	-327.66
	29	7.75	-1.03723E-001	-1.04124E-001	2.04592E-004	..........a	-327.66
	30	8.00833	-1.03852E-001	-1.04263E-001	2.20726E-004	..........a	-327.66
	31	8.26667	-1.03983E-001	-1.04405E-001	2.12459E-004	..........a	-327.66
	32	8.525	-1.04117E-001	-1.04551E-001	2.04926E-004	..........a	-327.66
	33	8.78333	-1.04255E-001	-1.04697E-001	2.04526E-004	..........a	-327.66
	34	9.04167	-1.04397E-001	-1.04851E-001	2.09992E-004	..........a	-327.66
	35	9.3	-1.04541E-001	-1.05011E-001	1.98592E-004	..........a	-327.66
	36	9.5583	-1.04690E-001	-1.05170E-001	2.10259E-004	..........a	-327.66
	37	9.8167	-1.04843E-001	-1.05334E-001	2.11059E-004	..........a	-327.66
	38	10.075	-1.05000E-001	-1.05504E-001	2.05659E-004	..........a	-327.66
EOC	QUANT	-0.1050001	Open Circuit (V)
PSTATMODEL	IQUANT	7	Pstat Model
PSTATSECTION	LABEL	REF600P-43058	Pstat Section
PSTATSERIALNO	LABEL	43058	Pstat Serial Number
CTRLMODE	IQUANT	1	Control Mode
ELECTROMETER	IQUANT	0	RE=0 or CS=1
IESTAB	IQUANT	2	I/E Stability
CASPEED	IQUANT	4	Control Amp Speed
CONVENTION	IQUANT	1	Current Convention
ICHRANGE	IQUANT	2	Ich Range
ICHRANGEMODE	TOGGLE	F	Ich Auto Range
ICHOFFSETENABLE	TOGGLE	F	Ich Offset Enable
ICHOFFSET	QUANT	0	Ich Offset (V)
ICHFILTER	IQUANT	1	Ich Filter
VCHRANGE	IQUANT	2	Vch Range
VCHRANGEMODE	TOGGLE	F	Vch Auto Range
VCHOFFSETENABLE	TOGGLE	F	Vch Offset Enable
VCHOFFSET	QUANT	0	Vch Offset (V)
VCHFILTER	IQUANT	1	Vch Filter
ACHRANGE	IQUANT	2	Ach Range
ACHOFFSETENABLE	TOGGLE	F	Ach Offset Enable
ACHOFFSET	QUANT	0	Ach Offset (V)
ACHFILTER	IQUANT	1	Ach Filter
IERANGELOWERLIMIT	IQUANT	1	I/E Range Lower Limit
IERANGEMODE	TOGGLE	T	I/E AutoRange
IERANGE	IQUANT	4	I/E Range
POSFEEDENABLE	TOGGLE	F	Positive Feedback IR Comp
POSFEEDRESISTANCE	QUANT	0	Positive Feedback Resistance (ohm)
ACHSELECT	IQUANT	4	Ach Select
SENSECABLEID	IQUANT	7	Sense Cable ID
PWRCABLEID	IQUANT	7	Power Cable ID
DCCALDATE	LABEL	3/22/2024	DC Calibration Date
ACCALDATE	LABEL	3/22/2024	AC Calibration Date
THERMOSELECT	IQUANT	1	Thermo Select
FRAMEWORKVERSION	LABEL	7.8.4	Framework Version
INSTRUMENTVERSION	LABEL	4.42	Instrument Version
CURVE1	TABLE
	Pt	T	Vf	Im	Vu	Sig	Ach	IERange	Over	Temp
	#	s	V vs. Ref.	A	V	V	V	#	bits	deg C
	0	0.0002	-1.05153E-001	3.05004E-007	0.00000E+000	-1.05000E-001	-2.18408E-004	8	..........a	-327.66
	2	0.0006	-1.24953E-001	-1.35506E-006	0.00000E+000	-1.25000E-001	8.15923E-005	8	..........a	-327.66
	4	0.001	-1.45253E-001	-2.43510E-006	0.00000E+000	-1.45000E-001	8.15923E-005	8	..........a	-327.66
	6	0.0014	-1.65153E-001	-3.23513E-006	0.00000E+000	-1.65000E-001	8.15923E-005	8	..........a	-327.66
	8	0.0018	-1.85053E-001	-3.83515E-006	0.00000E+000	-1.85000E-001	8.15923E-005	8	..........a	-327.66
	10	0.0022	-2.04853E-001	-4.25517E-006	0.00000E+000	-2.05000E-001	8.15923E-005	8	..........a	-327.66
	12	0.0026	-2.24953E-001	-4.71519E-006	0.00000E+000	-2.25000E-001	8.15923E-005	8	..........a	-327.66
	14	0.003	-2.44853E-001	-5.09520E-006	0.00000E+000	-2.45000E-001	8.15923E-005	8	..........a	-327.66
	16	0.0034	-2.65053E-001	-5.35521E-006	0.00000E+000	-2.65000E-001	-3.18408E-004	8	..........a	-327.66
	18	0.0038	-2.84853E-001	-5.66522E-006	0.00000E+000	-2.85000E-001	8.15923E-005	8	..........a	-327.66
	20	0.0042	-3.04853E-001	-5.95524E-006	0.00000E+000	-3.05000E-001	8.15923E-005	8	..........a	-327.66
	22	0.0046	-3.25053E-001	-6.20525E-006	0.00000E+000	-3.25000E-001	-6.18408E-004	8	..........a	-327.66
	24	0.005	-3.44803E-001	-6.45526E-006	0.00000E+000	-3.45000E-001	8.15923E-005	8	..........a	-327.66
	26	0.0054	-3.65053E-001	-6.66526E-006	0.00000E+000	-3.65000E-001	8.15923E-005	8	..........a	-327.66
	28	0.0058	-3.84953E-001	-6.92527E-006	0.00000E+000	-3.85000E-001	8.15923E-005	8	..........a	-327.66
	30	0.0062	-4.04953E-001	-7.16528E-006	0.00000E+000	-4.05000E-001	8.15923E-005	8	..........a	-327.66
	32	0.0066	-4.24753E-001	-7.41529E-006	0.00000E+000	-4.25000E-001	8.15923E-005	8	..........a	-327.66
	34	0.007	-4.45003E-001	-7.66530E-006	0.00000E+000	-4.45000E-001	8.15923E-005	8	..........a	-327.66
	36	0.0074	-4.64753E-001	-7.97531E-006	0.00000E+000	-4.65000E-001	8.15923E-005	8	..........a	-327.66
[...]
	2763	0.5528	2.50047E-001	-1.15655E-005	0.00000E+000	2.50000E-001	8.15923E-005	8	..........a	-327.66
	2764	0.553	2.40047E-001	-1.19055E-005	0.00000E+000	2.40000E-001	8.15923E-005	8	..........a	-327.66
	2765	0.5532	2.29947E-001	-1.22555E-005	0.00000E+000	2.30000E-001	8.15923E-005	8	..........a	-327.66
	2766	0.5534	2.20047E-001	-1.25055E-005	0.00000E+000	2.20000E-001	8.15923E-005	8	..........a	-327.66
	2767	0.5536	2.10147E-001	-1.27955E-005	0.00000E+000	2.10000E-001	8.15923E-005	8	..........a	-327.66
	2768	0.5538	2.00247E-001	-1.31155E-005	0.00000E+000	2.00000E-001	8.15923E-005	8	..........a	-327.66
	2769	0.554	1.90047E-001	-1.34155E-005	0.00000E+000	1.90000E-001	8.15923E-005	8	..........a	-327.66
	2770	0.5542	1.80047E-001	-1.36355E-005	0.00000E+000	1.80000E-001	8.15923E-005	8	..........a	-327.66
	2771	0.5544	1.70047E-001	-1.38555E-005	0.00000E+000	1.70000E-001	8.15923E-005	8	..........a	-327.66
	2772	0.5546	1.60247E-001	-1.40055E-005	0.00000E+000	1.60000E-001	8.15923E-005	8	..........a	-327.66
	2773	0.5548	1.49947E-001	-1.41455E-005	0.00000E+000	1.50000E-001	8.15923E-005	8	..........a	-327.66
	2774	0.555	1.40047E-001	-1.43556E-005	0.00000E+000	1.40000E-001	8.15923E-005	8	..........a	-327.66
	2775	0.5552	1.29847E-001	-1.44956E-005	0.00000E+000	1.30000E-001	-3.18408E-004	8	..........a	-327.66
	2776	0.5554	1.19847E-001	-1.45456E-005	0.00000E+000	1.20000E-001	8.15923E-005	8	..........a	-327.66
	2777	0.5556	1.10047E-001	-1.47256E-005	0.00000E+000	1.10000E-001	8.15923E-005	8	..........a	-327.66
	2778	0.5558	9.99471E-002	-1.48556E-005	0.00000E+000	1.00000E-001	8.15923E-005	8	..........a	-327.66
	2779	0.556	9.01471E-002	-1.49556E-005	0.00000E+000	9.00000E-002	-3.18408E-004	8	..........a	-327.66
	2780	0.5562	8.00471E-002	-1.50956E-005	0.00000E+000	8.00000E-002	8.15923E-005	8	..........a	-327.66
	2781	0.5564	6.99471E-002	-1.51856E-005	0.00000E+000	7.00000E-002	8.15923E-005	8	..........a	-327.66
	2782	0.5566	6.00471E-002	-1.53156E-005	0.00000E+000	6.00000E-002	8.15923E-005	8	..........a	-327.66
	2783	0.5568	5.00471E-002	-1.54056E-005	0.00000E+000	5.00000E-002	8.15923E-005	8	..........a	-327.66
	2784	0.557	3.98471E-002	-1.54956E-005	0.00000E+000	4.00000E-002	8.15923E-005	8	..........a	-327.66
	2785	0.5572	3.00471E-002	-1.55756E-005	0.00000E+000	3.00000E-002	8.15923E-005	8	..........a	-327.66
	2786	0.5574	2.01471E-002	-1.56556E-005	0.00000E+000	2.00000E-002	8.15923E-005	8	..........a	-327.66
	2787	0.5576	1.00471E-002	-1.57156E-005	0.00000E+000	1.00000E-002	8.15923E-005	8	..........a	-327.66
	2788	0.5578	4.71142E-005	-1.58056E-005	0.00000E+000	7.45058E-009	8.15923E-005	8	..........a	-327.66
	2789	0.558	-1.00529E-002	-1.58956E-005	0.00000E+000	-1.00000E-002	8.15923E-005	8	..........a	-327.66
	2790	0.5582	-1.99529E-002	-1.59356E-005	0.00000E+000	-2.00000E-002	8.15923E-005	8	..........a	-327.66
	2791	0.5584	-2.99529E-002	-1.59756E-005	0.00000E+000	-3.00000E-002	8.15923E-005	8	..........a	-327.66
	2792	0.5586	-3.98529E-002	-1.60156E-005	0.00000E+000	-4.00000E-002	8.15923E-005	8	..........a	-327.66
	2793	0.5588	-4.99529E-002	-1.60656E-005	0.00000E+000	-5.00000E-002	8.15923E-005	8	..........a	-327.66
	2794	0.559	-5.98529E-002	-1.60956E-005	0.00000E+000	-6.00000E-002	8.15923E-005	8	..........a	-327.66
	2795	0.5592	-6.99529E-002	-1.62056E-005	0.00000E+000	-7.00000E-002	-3.18408E-004	8	..........a	-327.66
	2796	0.5594	-8.01529E-002	-1.62756E-005	0.00000E+000	-8.00000E-002	8.15923E-005	8	..........a	-327.66
	2797	0.5596	-8.99529E-002	-1.63256E-005	0.00000E+000	-9.00000E-002	8.15923E-005	8	..........a	-327.66
	2798	0.5598	-9.99529E-002	-1.63156E-005	0.00000E+000	-1.00000E-001	-3.18408E-004	8	..........a	-327.66

File: 20240424_S_GM0016_HL03_E05_CV50.DTA
EXPLAIN
TAG	CV
TITLE	LABEL	Cyclic Voltammetry	Test &Identifier
DATE	LABEL	4/24/2024	Date
TIME	LABEL	17:49:15	Time
NOTES	NOTES	1	&Notes...

PSTAT	PSTAT	REF600P-43058	Potentiostat
VINIT	POTEN	0.00000E+000	T	Initial &E (V)
VLIMIT1	POTEN	-6.00000E-001	F	Scan Limit &1 (V)
VLIMIT2	POTEN	8.00000E-001	F	Scan Limit &2 (V)
VFINAL	POTEN	0.00000E+000	T	Final &E (V)
SCANRATE	QUANT	4.99999E+001	&Scan Rate (mV/s)
STEPSIZE	QUANT	1.00000E+001	St&ep Size (mV)
CYCLES	IQUANT	4	C&ycles (#)
IMODE	SELECTOR	0	I/E Range &Mode
IRANGE	QUANT	1.00000E-005	&Max Current (mA)
AREA	QUANT	1.00000E+000	Electrode &Area (cm^2)
ELECTRODETYPE	SELECTOR	0	Electrode Type
STRIPPING	TOGGLE	F	Used for Stripping
POLARITY	TOGGLE	F	Signal Polarity
CONDIT	TWOPARAM	F	1.50000E+001	0.00000E+000	Conditionin&g	Time(s)	E(V)
DELAY	TWOPARAM	T	1.00000E+001	0.00000E+000	Init. De&lay	Time(s)	Stab.(mV/s)
EQDELAY	QUANT	1.00000E+001	Equil. &Time (s)
IRCOMP	SELECTOR	0	IRCom&p
PFCOR	QUANT	5.00000E+001	PF Corr. (ohm)
SAMPLINGMODE	SELECTOR	1	Sampling &Mode
OCVCURVE	TABLE	39
	Pt	T	Vf	Vm	Ach	Over	Temp
	#	s	V vs. Ref.	V	V	bits	deg C
	0	0.258333	-1.16910E-001	-1.16910E-001	2.32259E-004	..........a	-327.66
	1	0.516667	-1.16911E-001	-1.16957E-001	2.29192E-004	..........a	-327.66
	2	0.775	-1.16916E-001	-1.16994E-001	2.26059E-004	..........a	-327.66
	3	1.03333	-1.16931E-001	-1.17042E-001	2.22859E-004	..........a	-327.66
	4	1.29167	-1.16958E-001	-1.17086E-001	2.23592E-004	..........a	-327.66
	5	1.55	-1.16994E-001	-1.17128E-001	2.31192E-004	..........a	-327.66
	6	1.80833	-1.17036E-001	-1.17165E-001	2.20592E-004	..........a	-327.66
	7	2.06667	-1.17080E-001	-1.17212E-001	2.39192E-004	..........a	-327.66
	8	2.325	-1.17123E-001	-1.17253E-001	2.30526E-004	..........a	-327.66
	9	2.58333	-1.17165E-001	-1.17287E-001	2.39392E-004	..........a	-327.66
	10	2.84167	-1.17206E-001	-1.17316E-001	2.40459E-004	..........a	-327.66
	11	3.1	-1.17245E-001	-1.17360E-001	2.32259E-004	..........a	-327.66
	12	3.35833	-1.17282E-001	-1.17391E-001	2.34592E-004	..........a	-327.66
	13	3.61667	-1.17318E-001	-1.17433E-001	2.31326E-004	..........a	-327.66
	14	3.875	-1.17354E-001	-1.17463E-001	2.41459E-004	..........a	-327.66
	15	4.13333	-1.17391E-001	-1.17508E-001	2.31459E-004	..........a	-327.66
	16	4.39167	-1.17427E-001	-1.17546E-001	2.41126E-004	..........a	-327.66
	17	4.65	-1.17465E-001	-1.17596E-001	2.26259E-004	..........a	-327.66
	18	4.90833	-1.17505E-001	-1.17625E-001	2.36659E-004	..........a	-327.66
	19	5.16667	-1.17546E-001	-1.17680E-001	2.26459E-004	..........a	-327.66
	20	5.425	-1.17587E-001	-1.17714E-001	2.42792E-004	..........a	-327.66
	21	5.68333	-1.17629E-001	-1.17765E-001	2.42326E-004	..........a	-327.66
	22	5.94167	-1.17672E-001	-1.17808E-001	2.21526E-004	..........a	-327.66
	23	6.2	-1.17716E-001	-1.17860E-001	2.41259E-004	..........a	-327.66
	24	6.45833	-1.17761E-001	-1.17901E-001	2.30659E-004	..........a	-327.66
	25	6.71667	-1.17806E-001	-1.17934E-001	2.33792E-004	..........a	-327.66
	26	6.975	-1.17851E-001	-1.17956E-001	2.28726E-004	..........a	-327.66
	27	7.23333	-1.17891E-001	-1.17992E-001	2.30926E-004	..........a	-327.66
	28	7.49167	-1.17926E-001	-1.18018E-001	2.47126E-004	..........a	-327.66
	29	7.75	-1.17958E-001	-1.18042E-001	2.38459E-004	..........a	-327.66
	30	8.00833	-1.17987E-001	-1.18080E-001	2.30459E-004	..........a	-327.66
	31	8.26667	-1.18016E-001	-1.18105E-001	2.54126E-004	..........a	-327.66
	32	8.525	-1.18045E-001	-1.18143E-001	2.26926E-004	..........a	-327.66
	33	8.78333	-1.18075E-001	-1.18181E-001	2.37459E-004	..........a	-327.66
	34	9.04167	-1.18107E-001	-1.18224E-001	2.24592E-004	..........a	-327.66
	35	9.3	-1.18142E-001	-1.18259E-001	2.42326E-004	..........a	-327.66
	36	9.5583	-1.18180E-001	-1.18292E-001	2.26792E-004	..........a	-327.66
	37	9.8167	-1.18218E-001	-1.18340E-001	2.43059E-004	..........a	-327.66
	38	10.075	-1.18256E-001	-1.18383E-001	2.29126E-004	..........a	-327.66
EOC	QUANT	-0.1182559	Open Circuit (V)
PSTATMODEL	IQUANT	7	Pstat Model
PSTATSECTION	LABEL	REF600P-43058	Pstat Section
PSTATSERIALNO	LABEL	43058	Pstat Serial Number
CTRLMODE	IQUANT	1	Control Mode
ELECTROMETER	IQUANT	0	RE=0 or CS=1
IESTAB	IQUANT	2	I/E Stability
CASPEED	IQUANT	4	Control Amp Speed
CONVENTION	IQUANT	1	Current Convention
ICHRANGE	IQUANT	2	Ich Range
ICHRANGEMODE	TOGGLE	F	Ich Auto Range
ICHOFFSETENABLE	TOGGLE	F	Ich Offset Enable
ICHOFFSET	QUANT	0	Ich Offset (V)
ICHFILTER	IQUANT	2	Ich Filter
VCHRANGE	IQUANT	2	Vch Range
VCHRANGEMODE	TOGGLE	F	Vch Auto Range
VCHOFFSETENABLE	TOGGLE	F	Vch Offset Enable
VCHOFFSET	QUANT	0	Vch Offset (V)
VCHFILTER	IQUANT	2	Vch Filter
ACHRANGE	IQUANT	2	Ach Range
ACHOFFSETENABLE	TOGGLE	F	Ach Offset Enable
ACHOFFSET	QUANT	0	Ach Offset (V)
ACHFILTER	IQUANT	1	Ach Filter
IERANGELOWERLIMIT	IQUANT	1	I/E Range Lower Limit
IERANGEMODE	TOGGLE	T	I/E AutoRange
IERANGE	IQUANT	4	I/E Range
POSFEEDENABLE	TOGGLE	F	Positive Feedback IR Comp
POSFEEDRESISTANCE	QUANT	0	Positive Feedback Resistance (ohm)
ACHSELECT	IQUANT	4	Ach Select
SENSECABLEID	IQUANT	7	Sense Cable ID
PWRCABLEID	IQUANT	7	Power Cable ID
DCCALDATE	LABEL	3/22/2024	DC Calibration Date
ACCALDATE	LABEL	3/22/2024	AC Calibration Date
THERMOSELECT	IQUANT	1	Thermo Select
FRAMEWORKVERSION	LABEL	7.8.4	Framework Version
INSTRUMENTVERSION	LABEL	4.42	Instrument Version
CURVE1	TABLE
	Pt	T	Vf	Im	Vu	Sig	Ach	IERange	Over	Temp
	#	s	V vs. Ref.	A	V	V	V	#	bits	deg C
	0	0.2	-1.18204E-001	5.26126E-010	0.00000E+000	-1.18250E-001	9.89192E-004	5	..........a	-327.66
	2	0.6	-1.38137E-001	-4.36781E-009	0.00000E+000	-1.38250E-001	9.80392E-004	5	..........a	-327.66
	4	1	-1.58211E-001	-7.80284E-009	0.00000E+000	-1.58250E-001	1.01039E-003	5	..........a	-327.66
	6	1.4	-1.78140E-001	-1.07969E-008	0.00000E+000	-1.78250E-001	9.93592E-004	5	..........a	-327.66
	8	1.8	-1.98177E-001	-1.35119E-008	0.00000E+000	-1.98250E-001	9.95792E-004	5	..........a	-327.66
	10	2.2	-2.18158E-001	-1.61055E-008	0.00000E+000	-2.18250E-001	9.93292E-004	5	..........a	-327.66
	12	2.6	-2.38141E-001	-1.86229E-008	0.00000E+000	-2.38250E-001	9.77592E-004	5	..........a	-327.66
	14	3	-2.58081E-001	-2.10863E-008	0.00000E+000	-2.58250E-001	9.92392E-004	5	..........a	-327.66
	16	3.4	-2.78156E-001	-2.34778E-008	0.00000E+000	-2.78250E-001	9.81692E-004	5	..........a	-327.66
	18	3.8	-2.98124E-001	-2.58834E-008	0.00000E+000	-2.98250E-001	9.63292E-004	5	..........a	-327.66
	20	4.2	-3.18174E-001	-2.82879E-008	0.00000E+000	-3.18250E-001	9.81092E-004	5	..........a	-327.66
	22	4.6	-3.38060E-001	-3.07095E-008	0.00000E+000	-3.38250E-001	9.73692E-004	5	..........a	-327.66
	24	5	-3.58198E-001	-3.32293E-008	0.00000E+000	-3.58250E-001	9.92392E-004	5	..........a	-327.66
	26	5.4	-3.78098E-001	-3.57694E-008	0.00000E+000	-3.78250E-001	9.94092E-004	5	..........a	-327.66
	28	5.8	-3.98180E-001	-3.83584E-008	0.00000E+000	-3.98250E-001	9.82692E-004	5	..........a	-327.66
	30	6.2	-4.18037E-001	-4.10130E-008	0.00000E+000	-4.18250E-001	9.98692E-004	5	..........a	-327.66
	32	6.6	-4.38125E-001	-4.36985E-008	0.00000E+000	-4.38250E-001	9.79792E-004	5	..........a	-327.66
	34	7	-4.58069E-001	-4.64248E-008	0.00000E+000	-4.58250E-001	9.74792E-004	5	..........a	-327.66
	36	7.4	-4.78103E-001	-4.91930E-008	0.00000E+000	-4.78250E-001	9.85492E-004	5	..........a	-327.66
	38	7.8	-4.98035E-001	-5.21071E-008	0.00000E+000	-4.98250E-001	9.95592E-004	5	..........a	-327.66
[...]
	1085	217.2	2.30040E-001	-2.04207E-008	0.00000E+000	2.30000E-001	1.02569E-003	5	..........a	-327.66
	1086	217.4	2.20043E-001	-2.14490E-008	0.00000E+000	2.20000E-001	9.79392E-004	5	..........a	-327.66
	1087	217.6	2.10021E-001	-2.23449E-008	0.00000E+000	2.10000E-001	1.02619E-003	5	..........a	-327.66
	1088	217.8	2.00081E-001	-2.31958E-008	0.00000E+000	2.00000E-001	1.00119E-003	5	..........a	-327.66
	1089	218	1.90136E-001	-2.39819E-008	0.00000E+000	1.90000E-001	9.80292E-004	5	..........a	-327.66
	1090	218.2	1.80124E-001	-2.47128E-008	0.00000E+000	1.80000E-001	1.00329E-003	5	..........a	-327.66
	1091	218.4	1.70091E-001	-2.54091E-008	0.00000E+000	1.70000E-001	1.00049E-003	5	..........a	-327.66
	1092	218.6	1.60092E-001	-2.60473E-008	0.00000E+000	1.60000E-001	1.00719E-003	5	..........a	-327.66
	1093	218.8	1.50085E-001	-2.66158E-008	0.00000E+000	1.50000E-001	1.01829E-003	5	..........a	-327.66
	1094	219	1.40130E-001	-2.71041E-008	0.00000E+000	1.40000E-001	9.95192E-004	5	..........a	-327.66
	1095	219.2	1.30050E-001	-2.76159E-008	0.00000E+000	1.30000E-001	1.00639E-003	5	..........a	-327.66
	1096	219.4	1.20054E-001	-2.80658E-008	0.00000E+000	1.20000E-001	1.00119E-003	5	..........a	-327.66
	1097	219.6	1.10121E-001	-2.85212E-008	0.00000E+000	1.10000E-001	9.91792E-004	5	..........a	-327.66
	1098	219.8	1.00150E-001	-2.89752E-008	0.00000E+000	1.00000E-001	1.00319E-003	5	..........a	-327.66
	1099	220	9.01073E-002	-2.93948E-008	0.00000E+000	9.00000E-002	9.96792E-004	5	..........a	-327.66
	1100	220.2	8.00768E-002	-2.98273E-008	0.00000E+000	8.00000E-002	1.00149E-003	5	..........a	-327.66
	1101	220.4	7.00438E-002	-3.02889E-008	0.00000E+000	7.00000E-002	1.01269E-003	5	..........a	-327.66
	1102	220.6	6.01342E-002	-3.07890E-008	0.00000E+000	6.00000E-002	9.92792E-004	5	..........a	-327.66
	1103	220.8	5.00614E-002	-3.13373E-008	0.00000E+000	5.00000E-002	1.01209E-003	5	..........a	-327.66
	1104	221	4.01602E-002	-3.19627E-008	0.00000E+000	4.00000E-002	1.00149E-003	5	..........a	-327.66
	1105	221.2	3.00495E-002	-3.26281E-008	0.00000E+000	3.00000E-002	1.02499E-003	5	..........a	-327.66
	1106	221.4	2.01510E-002	-3.33052E-008	0.00000E+000	2.00000E-002	9.97892E-004	5	..........a	-327.66
	1107	221.6	1.01279E-002	-3.40909E-008	0.00000E+000	1.00000E-002	9.92292E-004	5	..........a	-327.66
	1108	221.8	5.86917E-005	-3.49321E-008	0.00000E+000	7.45058E-009	9.99792E-004	5	..........a	-327.66
	1109	222	-9.87026E-003	-3.56388E-008	0.00000E+000	-1.00000E-002	1.00069E-003	5	..........a	-327.66
	1110	222.2	-1.98780E-002	-3.55623E-008	0.00000E+000	-2.00000E-002	9.86692E-004	5	..........a	-327.66
	1111	222.4	-2.99080E-002	-3.60801E-008	0.00000E+000	-3.00000E-002	1.00529E-003	5	..........a	-327.66
	1112	222.6	-3.98892E-002	-3.67815E-008	0.00000E+000	-4.00000E-002	9.93592E-004	5	..........a	-327.66
	1113	222.8	-4.99097E-002	-3.74935E-008	0.00000E+000	-5.00000E-002	1.01119E-003	5	..........a	-327.66
	1114	223	-5.98439E-002	-3.83326E-008	0.00000E+000	-6.00000E-002	9.81192E-004	5	..........a	-327.66
	1115	223.2	-6.98826E-002	-3.92005E-008	0.00000E+000	-7.00000E-002	1.00469E-003	5	..........a	-327.66
	1116	223.4	-7.99177E-002	-4.00847E-008	0.00000E+000	-8.00000E-002	9.96292E-004	5	..........a	-327.66
	1117	223.6	-8.98819E-002	-4.10106E-008	0.00000E+000	-9.00000E-002	9.92892E-004	5	..........a	-327.66
	1118	223.8	-9.98740E-002	-4.19581E-008	0.00000E+000	-1.00000E-001	9.85392E-004	5	..........a	-327.66
	1119	224	-1.09954E-001	-4.29111E-008	0.00000E+000	-1.10000E-001	1.01139E-003	5	..........a	-327.66
	1120	224.2	-1.19889E-001	-4.38587E-008	0.00000E+000	-1.20000E-001	1.00299E-003	5	..........a	-327.66