Folder: GamryParser/example_project/raw_outputs (part 15)

File: 20240509_O_GM0016_HL03_E04_CV50.DTA
EXPLAIN
TAG	CV
TITLE	LABEL	Cyclic Voltammetry	Test &Identifier
DATE	LABEL	5/9/2024	Date
TIME	LABEL	13:11:10	Time
NOTES	NOTES	1	&Notes...

PSTAT	PSTAT	REF600P-43058	Potentiostat
VINIT	POTEN	0.00000E+000	T	Initial &E (V)
VLIMIT1	POTEN	8.00000E-001	F	Scan Limit &1 (V)
VLIMIT2	POTEN	-6.00000E-001	F	Scan Limit &2 (V)
VFINAL	POTEN	0.00000E+000	T	Final &E (V)
SCANRATE	QUANT	4.99999E+001	&Scan Rate (mV/s)
STEPSIZE	QUANT	1.00000E+001	St&ep Size (mV)
CYCLES	IQUANT	4	C&ycles (#)
IMODE	SELECTOR	0	I/E Range &Mode
IRANGE	QUANT	1.00000E-005	&Max Current (mA)
AREA	QUANT	1.00000E+000	Electrode &Area (cm^2)
ELECTRODETYPE	SELECTOR	0	Electrode Type
STRIPPING	TOGGLE	F	Used for Stripping
POLARITY	TOGGLE	F	Signal Polarity
CONDIT	TWOPARAM	F	1.50000E+001	0.00000E+000	Conditionin&g	Time(s)	E(V)
DELAY	TWOPARAM	T	1.00000E+001	0.00000E+000	Init. De&lay	Time(s)	Stab.(mV/s)
EQDELAY	QUANT	1.00000E+001	Equil. &Time (s)
IRCOMP	SELECTOR	0	IRCom&p
PFCOR	QUANT	5.00000E+001	PF Corr. (ohm)
SAMPLINGMODE	SELECTOR	1	Sampling &Mode
OCVCURVE	TABLE	39
	Pt	T	Vf	Vm	Ach	Over	Temp
	#	s	V vs. Ref.	V	V	bits	deg C
	0	0.258333	-9.21808E-002	-9.21808E-002	2.51859E-004	..........a	-327.66
	1	0.516667	-9.21858E-002	-9.24426E-002	2.39059E-004	..........a	-327.66
	2	0.775	-9.22165E-002	-9.26895E-002	2.28659E-004	..........a	-327.66
	3	1.03333	-9.23036E-002	-9.29457E-002	2.42059E-004	..........a	-327.66
	4	1.29167	-9.24608E-002	-9.31889E-002	2.38659E-004	..........a	-327.66
	5	1.55	-9.26732E-002	-9.34347E-002	2.44126E-004	..........a	-327.66
	6	1.80833	-9.29139E-002	-9.36626E-002	2.29792E-004	..........a	-327.66
	7	2.06667	-9.31616E-002	-9.38985E-002	2.29059E-004	..........a	-327.66
	8	2.325	-9.34059E-002	-9.41288E-002	2.31526E-004	..........a	-327.66
	9	2.58333	-9.36445E-002	-9.43574E-002	2.49392E-004	..........a	-327.66
	10	2.84167	-9.38785E-002	-9.45817E-002	2.47859E-004	..........a	-327.66
	11	3.1	-9.41094E-002	-9.48117E-002	2.37392E-004	..........a	-327.66
	12	3.35833	-9.43380E-002	-9.50247E-002	2.33792E-004	..........a	-327.66
	13	3.61667	-9.45639E-002	-9.52287E-002	2.40459E-004	..........a	-327.66
	14	3.875	-9.47857E-002	-9.54381E-002	2.37526E-004	..........a	-327.66
	15	4.13333	-9.50018E-002	-9.56370E-002	2.41326E-004	..........a	-327.66
	16	4.39167	-9.52124E-002	-9.58462E-002	2.45059E-004	..........a	-327.66
	17	4.65	-9.54194E-002	-9.60510E-002	2.36859E-004	..........a	-327.66
	18	4.90833	-9.56249E-002	-9.62644E-002	2.39726E-004	..........a	-327.66
	19	5.16667	-9.58308E-002	-9.64733E-002	2.40992E-004	..........a	-327.66
	20	5.425	-9.60380E-002	-9.66702E-002	2.35992E-004	..........a	-327.66
	21	5.68333	-9.62455E-002	-9.68719E-002	2.29859E-004	..........a	-327.66
	22	5.94167	-9.64512E-002	-9.70669E-002	2.38592E-004	..........a	-327.66
	23	6.2	-9.66541E-002	-9.72706E-002	2.32326E-004	..........a	-327.66
	24	6.45833	-9.68546E-002	-9.74561E-002	2.43659E-004	..........a	-327.66
	25	6.71667	-9.70525E-002	-9.76316E-002	2.35392E-004	..........a	-327.66
	26	6.975	-9.72464E-002	-9.78128E-002	2.32126E-004	..........a	-327.66
	27	7.23333	-9.74350E-002	-9.80002E-002	2.35192E-004	..........a	-327.66
	28	7.49167	-9.76193E-002	-9.81732E-002	2.35126E-004	..........a	-327.66
	29	7.75	-9.78008E-002	-9.83413E-002	2.53392E-004	..........a	-327.66
	30	8.00833	-9.79800E-002	-9.85186E-002	2.20592E-004	..........a	-327.66
	31	8.26667	-9.81563E-002	-9.86831E-002	2.37192E-004	..........a	-327.66
	32	8.525	-9.83298E-002	-9.88502E-002	2.45326E-004	..........a	-327.66
	33	8.78333	-9.85008E-002	-9.90137E-002	2.32792E-004	..........a	-327.66
	34	9.04167	-9.86693E-002	-9.91764E-002	2.28859E-004	..........a	-327.66
	35	9.3	-9.88356E-002	-9.93369E-002	2.38192E-004	..........a	-327.66
	36	9.5583	-9.90000E-002	-9.94982E-002	2.29659E-004	..........a	-327.66
	37	9.8167	-9.91627E-002	-9.96568E-002	2.26259E-004	..........a	-327.66
	38	10.075	-9.93241E-002	-9.98083E-002	2.46659E-004	..........a	-327.66
EOC	QUANT	-0.0993241	Open Circuit (V)
PSTATMODEL	IQUANT	7	Pstat Model
PSTATSECTION	LABEL	REF600P-43058	Pstat Section
PSTATSERIALNO	LABEL	43058	Pstat Serial Number
CTRLMODE	IQUANT	1	Control Mode
ELECTROMETER	IQUANT	0	RE=0 or CS=1
IESTAB	IQUANT	2	I/E Stability
CASPEED	IQUANT	4	Control Amp Speed
CONVENTION	IQUANT	1	Current Convention
ICHRANGE	IQUANT	2	Ich Range
ICHRANGEMODE	TOGGLE	F	Ich Auto Range
ICHOFFSETENABLE	TOGGLE	F	Ich Offset Enable
ICHOFFSET	QUANT	0	Ich Offset (V)
ICHFILTER	IQUANT	2	Ich Filter
VCHRANGE	IQUANT	2	Vch Range
VCHRANGEMODE	TOGGLE	F	Vch Auto Range
VCHOFFSETENABLE	TOGGLE	F	Vch Offset Enable
VCHOFFSET	QUANT	0	Vch Offset (V)
VCHFILTER	IQUANT	2	Vch Filter
ACHRANGE	IQUANT	2	Ach Range
ACHOFFSETENABLE	TOGGLE	F	Ach Offset Enable
ACHOFFSET	QUANT	0	Ach Offset (V)
ACHFILTER	IQUANT	1	Ach Filter
IERANGELOWERLIMIT	IQUANT	1	I/E Range Lower Limit
IERANGEMODE	TOGGLE	T	I/E AutoRange
IERANGE	IQUANT	4	I/E Range
POSFEEDENABLE	TOGGLE	F	Positive Feedback IR Comp
POSFEEDRESISTANCE	QUANT	0	Positive Feedback Resistance (ohm)
ACHSELECT	IQUANT	4	Ach Select
SENSECABLEID	IQUANT	7	Sense Cable ID
PWRCABLEID	IQUANT	7	Power Cable ID
DCCALDATE	LABEL	3/22/2024	DC Calibration Date
ACCALDATE	LABEL	3/22/2024	AC Calibration Date
THERMOSELECT	IQUANT	1	Thermo Select
FRAMEWORKVERSION	LABEL	7.8.4	Framework Version
INSTRUMENTVERSION	LABEL	4.42	Instrument Version
CURVE1	TABLE
	Pt	T	Vf	Im	Vu	Sig	Ach	IERange	Over	Temp
	#	s	V vs. Ref.	A	V	V	V	#	bits	deg C
	0	0.2	-9.92782E-002	1.02492E-009	0.00000E+000	-9.93000E-002	1.01869E-003	5	..........a	-327.66
	3	0.8	-6.92085E-002	8.47902E-009	0.00000E+000	-6.93000E-002	1.01479E-003	5	..........a	-327.66
	6	1.4	-3.92463E-002	1.23764E-008	0.00000E+000	-3.93000E-002	1.00059E-003	5	..........a	-327.66
	9	2	-9.23896E-003	1.54539E-008	0.00000E+000	-9.29999E-003	1.02799E-003	5	..........a	-327.66
	12	2.6	2.07101E-002	1.84718E-008	0.00000E+000	2.07000E-002	1.00919E-003	5	..........a	-327.66
	15	3.2	5.07568E-002	2.17554E-008	0.00000E+000	5.07000E-002	1.00629E-003	5	..........a	-327.66
	18	3.8	8.07744E-002	2.57065E-008	0.00000E+000	8.07000E-002	1.02349E-003	5	..........a	-327.66
	21	4.4	1.10772E-001	3.10769E-008	0.00000E+000	1.10700E-001	1.01289E-003	5	..........a	-327.66
	24	5	1.40752E-001	3.84487E-008	0.00000E+000	1.40700E-001	9.98692E-004	5	..........a	-327.66
	27	5.6	1.70745E-001	1.06626E-007	0.00000E+000	1.70700E-001	9.97792E-004	5	..........a	-327.66
	30	6.2	2.00755E-001	5.41330E-008	0.00000E+000	2.00700E-001	1.00389E-003	5	..........a	-327.66
	33	6.8	2.30675E-001	6.02365E-008	0.00000E+000	2.30700E-001	1.00439E-003	5	..........a	-327.66
	36	7.4	2.60691E-001	6.77485E-008	0.00000E+000	2.60700E-001	1.02789E-003	5	..........a	-327.66
	39	8	2.90760E-001	7.49640E-008	0.00000E+000	2.90700E-001	1.02619E-003	5	..........a	-327.66
	42	8.6	3.20730E-001	8.17296E-008	0.00000E+000	3.20700E-001	1.01099E-003	5	..........a	-327.66
	45	9.2	3.50659E-001	8.94245E-008	0.00000E+000	3.50700E-001	1.01729E-003	5	..........a	-327.66
	48	9.8	3.80676E-001	9.83045E-008	0.00000E+000	3.80700E-001	1.01029E-003	5	..........a	-327.66
	51	10.4	4.10754E-001	1.08328E-007	0.00000E+000	4.10700E-001	1.01459E-003	5	..........a	-327.66
	54	11	4.40659E-001	1.18477E-007	0.00000E+000	4.40700E-001	9.98892E-004	5	..........a	-327.66
	57	11.6	4.70640E-001	1.28568E-007	0.00000E+000	4.70700E-001	1.01489E-003	5	..........a	-327.66
	60	12.2	5.00627E-001	1.39234E-007	0.00000E+000	5.00700E-001	1.00229E-003	5	..........a	-327.66
[...]
	1085	217.2	-4.49837E-001	-1.66949E-008	0.00000E+000	-4.50000E-001	9.80692E-004	5	..........a	-327.66
	1086	217.4	-4.39830E-001	-1.48314E-008	0.00000E+000	-4.40000E-001	1.00189E-003	5	..........a	-327.66
	1087	217.6	-4.29865E-001	-1.30608E-008	0.00000E+000	-4.30000E-001	9.94092E-004	5	..........a	-327.66
	1088	217.8	-4.19798E-001	-1.13268E-008	0.00000E+000	-4.20000E-001	9.99592E-004	5	..........a	-327.66
	1089	218	-4.09847E-001	-9.72519E-009	0.00000E+000	-4.10000E-001	9.96992E-004	5	..........a	-327.66
	1090	218.2	-3.99834E-001	-8.15714E-009	0.00000E+000	-4.00000E-001	1.00309E-003	5	..........a	-327.66
	1091	218.4	-3.89914E-001	-6.74071E-009	0.00000E+000	-3.90000E-001	1.02529E-003	5	..........a	-327.66
	1092	218.6	-3.79834E-001	-5.34231E-009	0.00000E+000	-3.80000E-001	9.89792E-004	5	..........a	-327.66
	1093	218.8	-3.69835E-001	-3.97633E-009	0.00000E+000	-3.70000E-001	1.01049E-003	5	..........a	-327.66
	1094	219	-3.59871E-001	-2.74134E-009	0.00000E+000	-3.60000E-001	1.01579E-003	5	..........a	-327.66
	1095	219.2	-3.49906E-001	-1.49714E-009	0.00000E+000	-3.50000E-001	9.97792E-004	5	..........a	-327.66
	1096	219.4	-3.39792E-001	-3.24656E-010	0.00000E+000	-3.40000E-001	9.82192E-004	5	..........a	-327.66
	1097	219.6	-3.29923E-001	8.49918E-010	0.00000E+000	-3.30000E-001	1.01739E-003	5	..........a	-327.66
	1098	219.8	-3.19861E-001	1.99833E-009	0.00000E+000	-3.20000E-001	1.01489E-003	5	..........a	-327.66
	1099	220	-3.09944E-001	3.07382E-009	0.00000E+000	-3.10000E-001	1.01309E-003	5	..........a	-327.66
	1100	220.2	-2.99860E-001	4.10034E-009	0.00000E+000	-3.00000E-001	1.00719E-003	5	..........a	-327.66
	1101	220.4	-2.89925E-001	5.16153E-009	0.00000E+000	-2.90000E-001	1.01059E-003	5	..........a	-327.66
	1102	220.6	-2.79928E-001	6.16464E-009	0.00000E+000	-2.80000E-001	1.00819E-003	5	..........a	-327.66
	1103	220.8	-2.69862E-001	7.15733E-009	0.00000E+000	-2.70000E-001	9.97092E-004	5	..........a	-327.66
	1104	221	-2.59824E-001	8.06778E-009	0.00000E+000	-2.60000E-001	1.00919E-003	5	..........a	-327.66
	1105	221.2	-2.49899E-001	9.05042E-009	0.00000E+000	-2.50000E-001	9.99692E-004	5	..........a	-327.66
	1106	221.4	-2.39920E-001	9.98630E-009	0.00000E+000	-2.40000E-001	1.00789E-003	5	..........a	-327.66
	1107	221.6	-2.29921E-001	1.09058E-008	0.00000E+000	-2.30000E-001	1.01769E-003	5	..........a	-327.66
	1108	221.8	-2.19866E-001	1.18397E-008	0.00000E+000	-2.20000E-001	9.89492E-004	5	..........a	-327.66
	1109	222	-2.09933E-001	1.27182E-008	0.00000E+000	-2.10000E-001	9.90292E-004	5	..........a	-327.66
	1110	222.2	-1.99966E-001	1.36569E-008	0.00000E+000	-2.00000E-001	1.02189E-003	5	..........a	-327.66
	1111	222.4	-1.89902E-001	1.45465E-008	0.00000E+000	-1.90000E-001	1.01659E-003	5	..........a	-327.66
	1112	222.6	-1.79910E-001	1.54474E-008	0.00000E+000	-1.80000E-001	1.01269E-003	5	..........a	-327.66
	1113	222.8	-1.69892E-001	1.63510E-008	0.00000E+000	-1.70000E-001	1.00629E-003	5	..........a	-327.66
	1114	223	-1.59979E-001	1.72621E-008	0.00000E+000	-1.60000E-001	1.02289E-003	5	..........a	-327.66
	1115	223.2	-1.49986E-001	1.81307E-008	0.00000E+000	-1.50000E-001	1.03389E-003	5	..........a	-327.66
	1116	223.4	-1.39907E-001	1.90315E-008	0.00000E+000	-1.40000E-001	1.01119E-003	5	..........a	-327.66
	1117	223.6	-1.29925E-001	1.99121E-008	0.00000E+000	-1.30000E-001	1.01309E-003	5	..........a	-327.66
	1118	223.8	-1.19940E-001	2.07982E-008	0.00000E+000	-1.20000E-001	1.00999E-003	5	..........a	-327.66
	1119	224	-1.09972E-001	2.17354E-008	0.00000E+000	-1.10000E-001	1.00939E-003	5	..........a	-327.66
	1120	224.2	-9.98863E-002	2.26688E-008	0.00000E+000	-1.00000E-001	9.97692E-004	5	..........a	-327.66

File: 20240509_W_GM0016_HL03_E06_CV50.DTA
EXPLAIN
TAG	CV
TITLE	LABEL	Cyclic Voltammetry	Test &Identifier
DATE	LABEL	5/9/2024	Date
TIME	LABEL	13:38:02	Time
NOTES	NOTES	1	&Notes...

PSTAT	PSTAT	REF600P-43058	Potentiostat
VINIT	POTEN	0.00000E+000	T	Initial &E (V)
VLIMIT1	POTEN	8.00000E-001	F	Scan Limit &1 (V)
VLIMIT2	POTEN	-6.00000E-001	F	Scan Limit &2 (V)
VFINAL	POTEN	0.00000E+000	T	Final &E (V)
SCANRATE	QUANT	4.99999E+001	&Scan Rate (mV/s)
STEPSIZE	QUANT	1.00000E+001	St&ep Size (mV)
CYCLES	IQUANT	4	C&ycles (#)
IMODE	SELECTOR	0	I/E Range &Mode
IRANGE	QUANT	1.00000E-005	&Max Current (mA)
AREA	QUANT	1.00000E+000	Electrode &Area (cm^2)
ELECTRODETYPE	SELECTOR	0	Electrode Type
STRIPPING	TOGGLE	F	Used for Stripping
POLARITY	TOGGLE	F	Signal Polarity
CONDIT	TWOPARAM	F	1.50000E+001	0.00000E+000	Conditionin&g	Time(s)	E(V)
DELAY	TWOPARAM	T	1.00000E+001	0.00000E+000	Init. De&lay	Time(s)	Stab.(mV/s)
EQDELAY	QUANT	1.00000E+001	Equil. &Time (s)
IRCOMP	SELECTOR	0	IRCom&p
PFCOR	QUANT	5.00000E+001	PF Corr. (ohm)
SAMPLINGMODE	SELECTOR	1	Sampling &Mode
OCVCURVE	TABLE	39
	Pt	T	Vf	Vm	Ach	Over	Temp
	#	s	V vs. Ref.	V	V	bits	deg C
	0	0.258333	-4.22790E-002	-4.22790E-002	2.30592E-004	..........a	-327.66
	1	0.516667	-4.22838E-002	-4.25283E-002	2.21192E-004	..........a	-327.66
	2	0.775	-4.23109E-002	-4.26545E-002	2.23592E-004	..........a	-327.66
	3	1.03333	-4.23805E-002	-4.27621E-002	2.23192E-004	..........a	-327.66
	4	1.29167	-4.24902E-002	-4.28660E-002	2.22792E-004	..........a	-327.66
	5	1.55	-4.26167E-002	-4.29532E-002	2.24792E-004	..........a	-327.66
	6	1.80833	-4.27383E-002	-4.30377E-002	2.22459E-004	..........a	-327.66
	7	2.06667	-4.28466E-002	-4.31143E-002	2.21926E-004	..........a	-327.66
	8	2.325	-4.29417E-002	-4.31820E-002	2.23392E-004	..........a	-327.66
	9	2.58333	-4.30264E-002	-4.32393E-002	2.22859E-004	..........a	-327.66
	10	2.84167	-4.31026E-002	-4.33092E-002	2.31192E-004	..........a	-327.66
	11	3.1	-4.31725E-002	-4.33757E-002	2.25326E-004	..........a	-327.66
	12	3.35833	-4.32391E-002	-4.34467E-002	2.30259E-004	..........a	-327.66
	13	3.61667	-4.33051E-002	-4.35077E-002	2.16859E-004	..........a	-327.66
	14	3.875	-4.33710E-002	-4.35458E-002	2.35059E-004	..........a	-327.66
	15	4.13333	-4.34348E-002	-4.36260E-002	2.32792E-004	..........a	-327.66
	16	4.39167	-4.34961E-002	-4.37047E-002	2.24992E-004	..........a	-327.66
	17	4.65	-4.35585E-002	-4.37845E-002	2.35059E-004	..........a	-327.66
	18	4.90833	-4.36261E-002	-4.38517E-002	2.27859E-004	..........a	-327.66
	19	5.16667	-4.36981E-002	-4.39033E-002	2.15659E-004	..........a	-327.66
	20	5.425	-4.37698E-002	-4.39583E-002	2.25459E-004	..........a	-327.66
	21	5.68333	-4.38369E-002	-4.40176E-002	2.27326E-004	..........a	-327.66
	22	5.94167	-4.38983E-002	-4.40754E-002	2.20259E-004	..........a	-327.66
	23	6.2	-4.39562E-002	-4.41154E-002	2.32126E-004	..........a	-327.66
	24	6.45833	-4.40114E-002	-4.41619E-002	2.24726E-004	..........a	-327.66
	25	6.71667	-4.40631E-002	-4.41877E-002	2.29126E-004	..........a	-327.66
	26	6.975	-4.41100E-002	-4.42412E-002	2.16192E-004	..........a	-327.66
	27	7.23333	-4.41525E-002	-4.42625E-002	2.28526E-004	..........a	-327.66
	28	7.49167	-4.41917E-002	-4.42948E-002	2.20926E-004	..........a	-327.66
	29	7.75	-4.42281E-002	-4.43369E-002	2.35526E-004	..........a	-327.66
	30	8.00833	-4.42628E-002	-4.43785E-002	2.21659E-004	..........a	-327.66
	31	8.26667	-4.42982E-002	-4.44242E-002	2.25726E-004	..........a	-327.66
	32	8.525	-4.43364E-002	-4.44802E-002	2.10126E-004	..........a	-327.66
	33	8.78333	-4.43784E-002	-4.45148E-002	2.22726E-004	..........a	-327.66
	34	9.04167	-4.44228E-002	-4.45387E-002	2.14926E-004	..........a	-327.66
	35	9.3	-4.44659E-002	-4.45686E-002	2.23726E-004	..........a	-327.66
	36	9.5583	-4.45042E-002	-4.46059E-002	2.27126E-004	..........a	-327.66
	37	9.8167	-4.45383E-002	-4.46450E-002	2.23926E-004	..........a	-327.66
	38	10.075	-4.45713E-002	-4.46829E-002	2.31059E-004	..........a	-327.66
EOC	QUANT	-0.0445713	Open Circuit (V)
PSTATMODEL	IQUANT	7	Pstat Model
PSTATSECTION	LABEL	REF600P-43058	Pstat Section
PSTATSERIALNO	LABEL	43058	Pstat Serial Number
CTRLMODE	IQUANT	1	Control Mode
ELECTROMETER	IQUANT	0	RE=0 or CS=1
IESTAB	IQUANT	2	I/E Stability
CASPEED	IQUANT	4	Control Amp Speed
CONVENTION	IQUANT	1	Current Convention
ICHRANGE	IQUANT	2	Ich Range
ICHRANGEMODE	TOGGLE	F	Ich Auto Range
ICHOFFSETENABLE	TOGGLE	F	Ich Offset Enable
ICHOFFSET	QUANT	0	Ich Offset (V)
ICHFILTER	IQUANT	2	Ich Filter
VCHRANGE	IQUANT	2	Vch Range
VCHRANGEMODE	TOGGLE	F	Vch Auto Range
VCHOFFSETENABLE	TOGGLE	F	Vch Offset Enable
VCHOFFSET	QUANT	0	Vch Offset (V)
VCHFILTER	IQUANT	2	Vch Filter
ACHRANGE	IQUANT	2	Ach Range
ACHOFFSETENABLE	TOGGLE	F	Ach Offset Enable
ACHOFFSET	QUANT	0	Ach Offset (V)
ACHFILTER	IQUANT	1	Ach Filter
IERANGELOWERLIMIT	IQUANT	1	I/E Range Lower Limit
IERANGEMODE	TOGGLE	T	I/E AutoRange
IERANGE	IQUANT	4	I/E Range
POSFEEDENABLE	TOGGLE	F	Positive Feedback IR Comp
POSFEEDRESISTANCE	QUANT	0	Positive Feedback Resistance (ohm)
ACHSELECT	IQUANT	4	Ach Select
SENSECABLEID	IQUANT	7	Sense Cable ID
PWRCABLEID	IQUANT	7	Power Cable ID
DCCALDATE	LABEL	3/22/2024	DC Calibration Date
ACCALDATE	LABEL	3/22/2024	AC Calibration Date
THERMOSELECT	IQUANT	1	Thermo Select
FRAMEWORKVERSION	LABEL	7.8.4	Framework Version
INSTRUMENTVERSION	LABEL	4.42	Instrument Version
CURVE1	TABLE
	Pt	T	Vf	Im	Vu	Sig	Ach	IERange	Over	Temp
	#	s	V vs. Ref.	A	V	V	V	#	bits	deg C
	0	0.2	-4.44909E-002	8.50568E-010	0.00000E+000	-4.45500E-002	9.86092E-004	5	..........a	-327.66
	3	0.8	-1.45314E-002	1.99748E-008	0.00000E+000	-1.45500E-002	9.60392E-004	5	..........a	-327.66
	6	1.4	1.55520E-002	3.05412E-008	0.00000E+000	1.54500E-002	9.85492E-004	5	..........a	-327.66
	9	2	4.55079E-002	3.96912E-008	0.00000E+000	4.54500E-002	9.70992E-004	5	..........a	-327.66
	12	2.6	7.54517E-002	4.84667E-008	0.00000E+000	7.54500E-002	9.70592E-004	5	..........a	-327.66
	15	3.2	1.05495E-001	5.71371E-008	0.00000E+000	1.05450E-001	9.98392E-004	5	..........a	-327.66
	18	3.8	1.35559E-001	6.61857E-008	0.00000E+000	1.35450E-001	9.96592E-004	5	..........a	-327.66
	21	4.4	1.65473E-001	7.61058E-008	0.00000E+000	1.65450E-001	9.89692E-004	5	..........a	-327.66
	24	5	1.95471E-001	8.76422E-008	0.00000E+000	1.95450E-001	1.00249E-003	5	..........a	-327.66
	27	5.6	2.25431E-001	1.02271E-007	0.00000E+000	2.25450E-001	9.90292E-004	5	..........a	-327.66
	30	6.2	2.55530E-001	1.15435E-007	0.00000E+000	2.55450E-001	1.00429E-003	5	..........a	-327.66
	33	6.8	2.85409E-001	1.26585E-007	0.00000E+000	2.85450E-001	9.84692E-004	5	..........a	-327.66
	36	7.4	3.15429E-001	1.38402E-007	0.00000E+000	3.15450E-001	9.91092E-004	5	..........a	-327.66
	39	8	3.45407E-001	1.51211E-007	0.00000E+000	3.45450E-001	9.93892E-004	5	..........a	-327.66
	42	8.6	3.75509E-001	1.65107E-007	0.00000E+000	3.75450E-001	9.94792E-004	5	..........a	-327.66
	45	9.2	4.05399E-001	1.79794E-007	0.00000E+000	4.05450E-001	9.78692E-004	5	..........a	-327.66
	48	9.8	4.35311E-001	1.95458E-007	0.00000E+000	4.35450E-001	9.90292E-004	5	..........a	-327.66
	51	10.4	4.65330E-001	2.11950E-007	0.00000E+000	4.65450E-001	1.00049E-003	5	..........a	-327.66
	54	11	4.95395E-001	2.28319E-007	0.00000E+000	4.95450E-001	9.75092E-004	5	..........a	-327.66
	57	11.6	5.25306E-001	2.45488E-007	0.00000E+000	5.25450E-001	9.88992E-004	5	..........a	-327.66
	60	12.2	5.55301E-001	2.64813E-007	0.00000E+000	5.55450E-001	9.85792E-004	5	..........a	-327.66
[...]
	1083	216.8	-3.99864E-001	-4.36484E-008	0.00000E+000	-4.00000E-001	9.68192E-004	5	..........a	-327.66
	1084	217	-3.89887E-001	-3.98192E-008	0.00000E+000	-3.90000E-001	9.76892E-004	5	..........a	-327.66
	1085	217.2	-3.79840E-001	-3.61616E-008	0.00000E+000	-3.80000E-001	9.65292E-004	5	..........a	-327.66
	1086	217.4	-3.69865E-001	-3.26317E-008	0.00000E+000	-3.70000E-001	9.63092E-004	5	..........a	-327.66
	1087	217.6	-3.59884E-001	-2.91501E-008	0.00000E+000	-3.60000E-001	9.77692E-004	5	..........a	-327.66
	1088	217.8	-3.49875E-001	-2.57795E-008	0.00000E+000	-3.50000E-001	9.74092E-004	5	..........a	-327.66
	1089	218	-3.39829E-001	-2.26202E-008	0.00000E+000	-3.40000E-001	9.72192E-004	5	..........a	-327.66
	1090	218.2	-3.29884E-001	-1.93570E-008	0.00000E+000	-3.30000E-001	9.88492E-004	5	..........a	-327.66
	1091	218.4	-3.19866E-001	-1.62509E-008	0.00000E+000	-3.20000E-001	9.61492E-004	5	..........a	-327.66
	1092	218.6	-3.09910E-001	-1.31825E-008	0.00000E+000	-3.10000E-001	9.82092E-004	5	..........a	-327.66
	1093	218.8	-2.99855E-001	-1.02029E-008	0.00000E+000	-3.00000E-001	9.60692E-004	5	..........a	-327.66
	1094	219	-2.89913E-001	-7.21948E-009	0.00000E+000	-2.90000E-001	9.87792E-004	5	..........a	-327.66
	1095	219.2	-2.79867E-001	-4.30998E-009	0.00000E+000	-2.80000E-001	9.74492E-004	5	..........a	-327.66
	1096	219.4	-2.69894E-001	-1.46203E-009	0.00000E+000	-2.70000E-001	9.64392E-004	5	..........a	-327.66
	1097	219.6	-2.59845E-001	1.39604E-009	0.00000E+000	-2.60000E-001	9.56192E-004	5	..........a	-327.66
	1098	219.8	-2.49905E-001	4.21492E-009	0.00000E+000	-2.50000E-001	9.75692E-004	5	..........a	-327.66
	1099	220	-2.39934E-001	7.00396E-009	0.00000E+000	-2.40000E-001	9.71592E-004	5	..........a	-327.66
	1100	220.2	-2.29956E-001	9.67883E-009	0.00000E+000	-2.30000E-001	9.73992E-004	5	..........a	-327.66
	1101	220.4	-2.19897E-001	1.23767E-008	0.00000E+000	-2.20000E-001	9.64592E-004	5	..........a	-327.66
	1102	220.6	-2.09927E-001	1.50911E-008	0.00000E+000	-2.10000E-001	9.65692E-004	5	..........a	-327.66
	1103	220.8	-1.99989E-001	1.77844E-008	0.00000E+000	-2.00000E-001	9.86992E-004	5	..........a	-327.66
	1104	221	-1.90054E-001	2.04212E-008	0.00000E+000	-1.90000E-001	9.72092E-004	5	..........a	-327.66
	1105	221.2	-1.79951E-001	2.30806E-008	0.00000E+000	-1.80000E-001	9.69492E-004	5	..........a	-327.66
	1106	221.4	-1.69906E-001	2.57006E-008	0.00000E+000	-1.70000E-001	9.70092E-004	5	..........a	-327.66
	1107	221.6	-1.60029E-001	2.82814E-008	0.00000E+000	-1.60000E-001	9.78992E-004	5	..........a	-327.66
	1108	221.8	-1.49971E-001	3.09150E-008	0.00000E+000	-1.50000E-001	9.83092E-004	5	..........a	-327.66
	1109	222	-1.39921E-001	3.35495E-008	0.00000E+000	-1.40000E-001	9.64692E-004	5	..........a	-327.66
	1110	222.2	-1.29944E-001	3.59524E-008	0.00000E+000	-1.30000E-001	9.76192E-004	5	..........a	-327.66
	1111	222.4	-1.19975E-001	3.86680E-008	0.00000E+000	-1.20000E-001	9.76192E-004	5	..........a	-327.66
	1112	222.6	-1.09998E-001	4.13090E-008	0.00000E+000	-1.10000E-001	9.73492E-004	5	..........a	-327.66
	1113	222.8	-9.99493E-002	4.38961E-008	0.00000E+000	-1.00000E-001	9.68692E-004	5	..........a	-327.66
	1114	223	-8.99265E-002	4.65022E-008	0.00000E+000	-9.00000E-002	9.76392E-004	5	..........a	-327.66
	1115	223.2	-8.00073E-002	4.90031E-008	0.00000E+000	-8.00000E-002	9.94792E-004	5	..........a	-327.66
	1116	223.4	-6.99421E-002	5.15082E-008	0.00000E+000	-7.00000E-002	9.77092E-004	5	..........a	-327.66
	1117	223.6	-5.99284E-002	5.40570E-008	0.00000E+000	-6.00000E-002	9.68592E-004	5	..........a	-327.66
	1118	223.8	-4.99219E-002	5.65428E-008	0.00000E+000	-5.00000E-002	9.79092E-004	5	..........a	-327.66