Folder: GamryParser/example_project/raw_outputs (part 14)

File: 20240424_ZZK_GM0016_HL03_E16_CV50.DTA
EXPLAIN
TAG	CV
TITLE	LABEL	Cyclic Voltammetry	Test &Identifier
DATE	LABEL	4/24/2024	Date
TIME	LABEL	20:09:27	Time
NOTES	NOTES	1	&Notes...

PSTAT	PSTAT	REF600P-43058	Potentiostat
VINIT	POTEN	0.00000E+000	T	Initial &E (V)
VLIMIT1	POTEN	-6.00000E-001	F	Scan Limit &1 (V)
VLIMIT2	POTEN	8.00000E-001	F	Scan Limit &2 (V)
VFINAL	POTEN	0.00000E+000	T	Final &E (V)
SCANRATE	QUANT	4.99999E+001	&Scan Rate (mV/s)
STEPSIZE	QUANT	1.00000E+001	St&ep Size (mV)
CYCLES	IQUANT	4	C&ycles (#)
IMODE	SELECTOR	0	I/E Range &Mode
IRANGE	QUANT	1.00000E-005	&Max Current (mA)
AREA	QUANT	1.00000E+000	Electrode &Area (cm^2)
ELECTRODETYPE	SELECTOR	0	Electrode Type
STRIPPING	TOGGLE	F	Used for Stripping
POLARITY	TOGGLE	F	Signal Polarity
CONDIT	TWOPARAM	F	1.50000E+001	0.00000E+000	Conditionin&g	Time(s)	E(V)
DELAY	TWOPARAM	T	1.00000E+001	0.00000E+000	Init. De&lay	Time(s)	Stab.(mV/s)
EQDELAY	QUANT	1.00000E+001	Equil. &Time (s)
IRCOMP	SELECTOR	0	IRCom&p
PFCOR	QUANT	5.00000E+001	PF Corr. (ohm)
SAMPLINGMODE	SELECTOR	1	Sampling &Mode
OCVCURVE	TABLE	39
	Pt	T	Vf	Vm	Ach	Over	Temp
	#	s	V vs. Ref.	V	V	bits	deg C
	0	0.258333	-4.46659E-002	-4.46659E-002	2.54126E-004	..........a	-327.66
	1	0.516667	-4.46686E-002	-4.48033E-002	2.48326E-004	..........a	-327.66
	2	0.775	-4.46843E-002	-4.49164E-002	2.59526E-004	..........a	-327.66
	3	1.03333	-4.47282E-002	-4.50398E-002	2.53659E-004	..........a	-327.66
	4	1.29167	-4.48057E-002	-4.51524E-002	2.45992E-004	..........a	-327.66
	5	1.55	-4.49086E-002	-4.52778E-002	2.52059E-004	..........a	-327.66
	6	1.80833	-4.50243E-002	-4.53879E-002	2.56392E-004	..........a	-327.66
	7	2.06667	-4.51438E-002	-4.55058E-002	2.55459E-004	..........a	-327.66
	8	2.325	-4.52627E-002	-4.56153E-002	2.57059E-004	..........a	-327.66
	9	2.58333	-4.53795E-002	-4.57314E-002	2.38926E-004	..........a	-327.66
	10	2.84167	-4.54945E-002	-4.58456E-002	2.49126E-004	..........a	-327.66
	11	3.1	-4.56084E-002	-4.59476E-002	2.57792E-004	..........a	-327.66
	12	3.35833	-4.57213E-002	-4.60699E-002	2.40326E-004	..........a	-327.66
	13	3.61667	-4.58334E-002	-4.61790E-002	2.62859E-004	..........a	-327.66
	14	3.875	-4.59452E-002	-4.62774E-002	2.51992E-004	..........a	-327.66
	15	4.13333	-4.60564E-002	-4.63981E-002	2.41792E-004	..........a	-327.66
	16	4.39167	-4.61664E-002	-4.64984E-002	2.54326E-004	..........a	-327.66
	17	4.65	-4.62752E-002	-4.65922E-002	2.51926E-004	..........a	-327.66
	18	4.90833	-4.63823E-002	-4.67101E-002	2.48326E-004	..........a	-327.66
	19	5.16667	-4.64876E-002	-4.68068E-002	2.50792E-004	..........a	-327.66
	20	5.425	-4.65918E-002	-4.69012E-002	2.76992E-004	..........a	-327.66
	21	5.68333	-4.66948E-002	-4.69976E-002	2.56926E-004	..........a	-327.66
	22	5.94167	-4.67957E-002	-4.71025E-002	2.60259E-004	..........a	-327.66
	23	6.2	-4.68949E-002	-4.72026E-002	2.38992E-004	..........a	-327.66
	24	6.45833	-4.69939E-002	-4.72991E-002	2.43126E-004	..........a	-327.66
	25	6.71667	-4.70932E-002	-4.73838E-002	2.71859E-004	..........a	-327.66
	26	6.975	-4.71911E-002	-4.74769E-002	2.44326E-004	..........a	-327.66
	27	7.23333	-4.72863E-002	-4.75710E-002	2.41659E-004	..........a	-327.66
	28	7.49167	-4.73793E-002	-4.76652E-002	2.56192E-004	..........a	-327.66
	29	7.75	-4.74715E-002	-4.77568E-002	2.37526E-004	..........a	-327.66
	30	8.00833	-4.75640E-002	-4.78460E-002	2.52992E-004	..........a	-327.66
	31	8.26667	-4.76564E-002	-4.79372E-002	2.47392E-004	..........a	-327.66
	32	8.525	-4.77482E-002	-4.80227E-002	2.54126E-004	..........a	-327.66
	33	8.78333	-4.78388E-002	-4.81157E-002	2.56792E-004	..........a	-327.66
	34	9.04167	-4.79286E-002	-4.81990E-002	2.44192E-004	..........a	-327.66
	35	9.3	-4.80176E-002	-4.82901E-002	2.48792E-004	..........a	-327.66
	36	9.5583	-4.81061E-002	-4.83770E-002	2.55059E-004	..........a	-327.66
	37	9.8167	-4.81943E-002	-4.84693E-002	2.66459E-004	..........a	-327.66
	38	10.075	-4.82827E-002	-4.85513E-002	2.45059E-004	..........a	-327.66
EOC	QUANT	-0.0482827	Open Circuit (V)
PSTATMODEL	IQUANT	7	Pstat Model
PSTATSECTION	LABEL	REF600P-43058	Pstat Section
PSTATSERIALNO	LABEL	43058	Pstat Serial Number
CTRLMODE	IQUANT	1	Control Mode
ELECTROMETER	IQUANT	0	RE=0 or CS=1
IESTAB	IQUANT	2	I/E Stability
CASPEED	IQUANT	4	Control Amp Speed
CONVENTION	IQUANT	1	Current Convention
ICHRANGE	IQUANT	2	Ich Range
ICHRANGEMODE	TOGGLE	F	Ich Auto Range
ICHOFFSETENABLE	TOGGLE	F	Ich Offset Enable
ICHOFFSET	QUANT	0	Ich Offset (V)
ICHFILTER	IQUANT	2	Ich Filter
VCHRANGE	IQUANT	2	Vch Range
VCHRANGEMODE	TOGGLE	F	Vch Auto Range
VCHOFFSETENABLE	TOGGLE	F	Vch Offset Enable
VCHOFFSET	QUANT	0	Vch Offset (V)
VCHFILTER	IQUANT	2	Vch Filter
ACHRANGE	IQUANT	2	Ach Range
ACHOFFSETENABLE	TOGGLE	F	Ach Offset Enable
ACHOFFSET	QUANT	0	Ach Offset (V)
ACHFILTER	IQUANT	1	Ach Filter
IERANGELOWERLIMIT	IQUANT	1	I/E Range Lower Limit
IERANGEMODE	TOGGLE	T	I/E AutoRange
IERANGE	IQUANT	4	I/E Range
POSFEEDENABLE	TOGGLE	F	Positive Feedback IR Comp
POSFEEDRESISTANCE	QUANT	0	Positive Feedback Resistance (ohm)
ACHSELECT	IQUANT	4	Ach Select
SENSECABLEID	IQUANT	7	Sense Cable ID
PWRCABLEID	IQUANT	7	Power Cable ID
DCCALDATE	LABEL	3/22/2024	DC Calibration Date
ACCALDATE	LABEL	3/22/2024	AC Calibration Date
THERMOSELECT	IQUANT	1	Thermo Select
FRAMEWORKVERSION	LABEL	7.8.4	Framework Version
INSTRUMENTVERSION	LABEL	4.42	Instrument Version
CURVE1	TABLE
	Pt	T	Vf	Im	Vu	Sig	Ach	IERange	Over	Temp
	#	s	V vs. Ref.	A	V	V	V	#	bits	deg C
	0	0.2	-4.82749E-002	8.12577E-010	0.00000E+000	-4.83000E-002	1.00169E-003	5	..........a	-327.66
	2	0.6	-6.82346E-002	-6.17535E-009	0.00000E+000	-6.83000E-002	1.02489E-003	5	..........a	-327.66
	4	1	-8.82726E-002	-1.14751E-008	0.00000E+000	-8.83000E-002	1.02909E-003	5	..........a	-327.66
	6	1.4	-1.08267E-001	-1.62518E-008	0.00000E+000	-1.08300E-001	1.00959E-003	5	..........a	-327.66
	8	1.8	-1.28270E-001	-2.08577E-008	0.00000E+000	-1.28300E-001	1.02399E-003	5	..........a	-327.66
	10	2.2	-1.48252E-001	-2.52660E-008	0.00000E+000	-1.48300E-001	1.00699E-003	5	..........a	-327.66
	12	2.6	-1.68233E-001	-2.96114E-008	0.00000E+000	-1.68300E-001	1.04969E-003	5	..........a	-327.66
	14	3	-1.88245E-001	-3.38741E-008	0.00000E+000	-1.88300E-001	1.03029E-003	5	..........a	-327.66
	16	3.4	-2.08252E-001	-3.80340E-008	0.00000E+000	-2.08300E-001	1.03169E-003	5	..........a	-327.66
	18	3.8	-2.28232E-001	-4.21948E-008	0.00000E+000	-2.28300E-001	1.01869E-003	5	..........a	-327.66
	20	4.2	-2.48218E-001	-4.63284E-008	0.00000E+000	-2.48300E-001	1.03399E-003	5	..........a	-327.66
	22	4.6	-2.68233E-001	-5.05671E-008	0.00000E+000	-2.68300E-001	1.02169E-003	5	..........a	-327.66
	24	5	-2.88211E-001	-5.50003E-008	0.00000E+000	-2.88300E-001	1.00419E-003	5	..........a	-327.66
	26	5.4	-3.08226E-001	-5.97957E-008	0.00000E+000	-3.08300E-001	1.02059E-003	5	..........a	-327.66
	28	5.8	-3.28211E-001	-6.50966E-008	0.00000E+000	-3.28300E-001	1.06119E-003	5	..........a	-327.66
	30	6.2	-3.48205E-001	-7.08491E-008	0.00000E+000	-3.48300E-001	1.02039E-003	5	..........a	-327.66
	32	6.6	-3.68211E-001	-7.70693E-008	0.00000E+000	-3.68300E-001	1.01709E-003	5	..........a	-327.66
	34	7	-3.88199E-001	-8.35182E-008	0.00000E+000	-3.88300E-001	1.04839E-003	5	..........a	-327.66
	36	7.4	-4.08200E-001	-8.99930E-008	0.00000E+000	-4.08300E-001	1.03419E-003	5	..........a	-327.66
	38	7.8	-4.28172E-001	-9.63039E-008	0.00000E+000	-4.28300E-001	1.02309E-003	5	..........a	-327.66
[...]
	1085	217.2	3.00069E-001	-1.82850E-008	0.00000E+000	3.00000E-001	9.99692E-004	5	..........a	-327.66
	1086	217.4	2.90050E-001	-2.00674E-008	0.00000E+000	2.90000E-001	1.02389E-003	5	..........a	-327.66
	1087	217.6	2.79979E-001	-2.17617E-008	0.00000E+000	2.80000E-001	1.01719E-003	5	..........a	-327.66
	1088	217.8	2.70063E-001	-2.33964E-008	0.00000E+000	2.70000E-001	1.02049E-003	5	..........a	-327.66
	1089	218	2.60060E-001	-2.49880E-008	0.00000E+000	2.60000E-001	1.00539E-003	5	..........a	-327.66
	1090	218.2	2.50013E-001	-2.65320E-008	0.00000E+000	2.50000E-001	1.03039E-003	5	..........a	-327.66
	1091	218.4	2.40049E-001	-2.80241E-008	0.00000E+000	2.40000E-001	1.04819E-003	5	..........a	-327.66
	1092	218.6	2.30026E-001	-2.94767E-008	0.00000E+000	2.30000E-001	1.02809E-003	5	..........a	-327.66
	1093	218.8	2.20061E-001	-3.09288E-008	0.00000E+000	2.20000E-001	1.00159E-003	5	..........a	-327.66
	1094	219	2.10015E-001	-3.23230E-008	0.00000E+000	2.10000E-001	1.02169E-003	5	..........a	-327.66
	1095	219.2	2.00040E-001	-3.36872E-008	0.00000E+000	2.00000E-001	1.01819E-003	5	..........a	-327.66
	1096	219.4	1.90124E-001	-3.50360E-008	0.00000E+000	1.90000E-001	1.00139E-003	5	..........a	-327.66
	1097	219.6	1.80108E-001	-3.63834E-008	0.00000E+000	1.80000E-001	1.01029E-003	5	..........a	-327.66
	1098	219.8	1.70057E-001	-3.76970E-008	0.00000E+000	1.70000E-001	1.01909E-003	5	..........a	-327.66
	1099	220	1.60052E-001	-3.90043E-008	0.00000E+000	1.60000E-001	1.02019E-003	5	..........a	-327.66
	1100	220.2	1.50080E-001	-4.03271E-008	0.00000E+000	1.50000E-001	1.02989E-003	5	..........a	-327.66
	1101	220.4	1.40134E-001	-4.17240E-008	0.00000E+000	1.40000E-001	1.00519E-003	5	..........a	-327.66
	1102	220.6	1.30055E-001	-4.30317E-008	0.00000E+000	1.30000E-001	1.02619E-003	5	..........a	-327.66
	1103	220.8	1.20105E-001	-4.43729E-008	0.00000E+000	1.20000E-001	1.03449E-003	5	..........a	-327.66
	1104	221	1.10116E-001	-4.56348E-008	0.00000E+000	1.10000E-001	1.03799E-003	5	..........a	-327.66
	1105	221.2	1.00127E-001	-4.68716E-008	0.00000E+000	1.00000E-001	1.01299E-003	5	..........a	-327.66
	1106	221.4	9.00756E-002	-4.80868E-008	0.00000E+000	9.00000E-002	9.98392E-004	5	..........a	-327.66
	1107	221.6	8.00591E-002	-4.92432E-008	0.00000E+000	8.00000E-002	1.01659E-003	5	..........a	-327.66
	1108	221.8	7.00517E-002	-5.03932E-008	0.00000E+000	7.00000E-002	1.02029E-003	5	..........a	-327.66
	1109	222	6.01369E-002	-5.15445E-008	0.00000E+000	6.00000E-002	9.96692E-004	5	..........a	-327.66
	1110	222.2	5.00528E-002	-5.27119E-008	0.00000E+000	5.00000E-002	1.02329E-003	5	..........a	-327.66
	1111	222.4	4.00332E-002	-5.40209E-008	0.00000E+000	4.00000E-002	1.01329E-003	5	..........a	-327.66
	1112	222.6	3.00915E-002	-5.54506E-008	0.00000E+000	3.00000E-002	1.04039E-003	5	..........a	-327.66
	1113	222.8	2.01680E-002	-5.69061E-008	0.00000E+000	2.00000E-002	1.03329E-003	5	..........a	-327.66
	1114	223	1.01056E-002	-5.80460E-008	0.00000E+000	1.00000E-002	1.00359E-003	5	..........a	-327.66
	1115	223.2	3.62416E-005	-5.95931E-008	0.00000E+000	7.45058E-009	1.04259E-003	5	..........a	-327.66
	1116	223.4	-9.88201E-003	-6.09733E-008	0.00000E+000	-1.00000E-002	1.01209E-003	5	..........a	-327.66
	1117	223.6	-1.98902E-002	-6.12869E-008	0.00000E+000	-2.00000E-002	1.01219E-003	5	..........a	-327.66
	1118	223.8	-2.99272E-002	-6.17021E-008	0.00000E+000	-3.00000E-002	1.03129E-003	5	..........a	-327.66
	1119	224	-3.98916E-002	-6.28097E-008	0.00000E+000	-4.00000E-002	1.01149E-003	5	..........a	-327.66
	1120	224.2	-4.99177E-002	-6.39800E-008	0.00000E+000	-5.00000E-002	1.02379E-003	5	..........a	-327.66

File: 20240509_C_GM0016_HL03_E01_CV50.DTA
EXPLAIN
TAG	CV
TITLE	LABEL	Cyclic Voltammetry	Test &Identifier
DATE	LABEL	5/9/2024	Date
TIME	LABEL	12:30:22	Time
NOTES	NOTES	1	&Notes...

PSTAT	PSTAT	REF600P-43058	Potentiostat
VINIT	POTEN	0.00000E+000	T	Initial &E (V)
VLIMIT1	POTEN	8.00000E-001	F	Scan Limit &1 (V)
VLIMIT2	POTEN	-6.00000E-001	F	Scan Limit &2 (V)
VFINAL	POTEN	0.00000E+000	T	Final &E (V)
SCANRATE	QUANT	4.99999E+001	&Scan Rate (mV/s)
STEPSIZE	QUANT	1.00000E+001	St&ep Size (mV)
CYCLES	IQUANT	4	C&ycles (#)
IMODE	SELECTOR	0	I/E Range &Mode
IRANGE	QUANT	1.00000E-005	&Max Current (mA)
AREA	QUANT	1.00000E+000	Electrode &Area (cm^2)
ELECTRODETYPE	SELECTOR	0	Electrode Type
STRIPPING	TOGGLE	F	Used for Stripping
POLARITY	TOGGLE	F	Signal Polarity
CONDIT	TWOPARAM	F	1.50000E+001	0.00000E+000	Conditionin&g	Time(s)	E(V)
DELAY	TWOPARAM	T	1.00000E+001	0.00000E+000	Init. De&lay	Time(s)	Stab.(mV/s)
EQDELAY	QUANT	1.00000E+001	Equil. &Time (s)
IRCOMP	SELECTOR	0	IRCom&p
PFCOR	QUANT	5.00000E+001	PF Corr. (ohm)
SAMPLINGMODE	SELECTOR	1	Sampling &Mode
OCVCURVE	TABLE	39
	Pt	T	Vf	Vm	Ach	Over	Temp
	#	s	V vs. Ref.	V	V	bits	deg C
	0	0.258333	1.71403E-001	1.71403E-001	2.51992E-004	..........a	-327.66
	1	0.516667	1.71352E-001	1.68750E-001	2.44192E-004	..........a	-327.66
	2	0.775	1.71040E-001	1.66184E-001	2.48859E-004	..........a	-327.66
	3	1.03333	1.70154E-001	1.63709E-001	2.41326E-004	..........a	-327.66
	4	1.29167	1.68559E-001	1.61312E-001	2.60659E-004	..........a	-327.66
	5	1.55	1.66426E-001	1.58992E-001	2.52592E-004	..........a	-327.66
	6	1.80833	1.64040E-001	1.56749E-001	2.40659E-004	..........a	-327.66
	7	2.06667	1.61616E-001	1.54572E-001	2.41192E-004	..........a	-327.66
	8	2.325	1.59255E-001	1.52460E-001	2.49592E-004	..........a	-327.66
	9	2.58333	1.56981E-001	1.50416E-001	2.42259E-004	..........a	-327.66
	10	2.84167	1.54790E-001	1.48426E-001	2.46859E-004	..........a	-327.66
	11	3.1	1.52671E-001	1.46497E-001	2.35192E-004	..........a	-327.66
	12	3.35833	1.50617E-001	1.44616E-001	2.44659E-004	..........a	-327.66
	13	3.61667	1.48623E-001	1.42793E-001	2.43792E-004	..........a	-327.66
	14	3.875	1.46685E-001	1.41011E-001	2.44926E-004	..........a	-327.66
	15	4.13333	1.44801E-001	1.39266E-001	2.30792E-004	..........a	-327.66
	16	4.39167	1.42967E-001	1.37572E-001	2.37392E-004	..........a	-327.66
	17	4.65	1.41180E-001	1.35937E-001	2.33126E-004	..........a	-327.66
	18	4.90833	1.39438E-001	1.34326E-001	2.34659E-004	..........a	-327.66
	19	5.16667	1.37742E-001	1.32767E-001	2.45326E-004	..........a	-327.66
	20	5.425	1.36091E-001	1.31241E-001	2.29992E-004	..........a	-327.66
	21	5.68333	1.34483E-001	1.29746E-001	2.28326E-004	..........a	-327.66
	22	5.94167	1.32915E-001	1.28283E-001	2.34259E-004	..........a	-327.66
	23	6.2	1.31383E-001	1.26845E-001	2.30059E-004	..........a	-327.66
	24	6.45833	1.29885E-001	1.25445E-001	2.35126E-004	..........a	-327.66
	25	6.71667	1.28418E-001	1.24078E-001	2.40726E-004	..........a	-327.66
	26	6.975	1.26982E-001	1.22741E-001	2.36926E-004	..........a	-327.66
	27	7.23333	1.25579E-001	1.21430E-001	2.41126E-004	..........a	-327.66
	28	7.49167	1.24207E-001	1.20139E-001	2.41392E-004	..........a	-327.66
	29	7.75	1.22864E-001	1.18872E-001	2.39859E-004	..........a	-327.66
	30	8.00833	1.21548E-001	1.17636E-001	2.32926E-004	..........a	-327.66
	31	8.26667	1.20257E-001	1.16418E-001	2.35859E-004	..........a	-327.66
	32	8.525	1.18991E-001	1.15237E-001	2.35259E-004	..........a	-327.66
	33	8.78333	1.17752E-001	1.14145E-001	2.42792E-004	..........a	-327.66
	34	9.04167	1.16545E-001	1.13083E-001	2.41726E-004	..........a	-327.66
	35	9.3	1.15380E-001	1.12043E-001	2.46526E-004	..........a	-327.66
	36	9.5583	1.14261E-001	1.11007E-001	2.43259E-004	..........a	-327.66
	37	9.8167	1.13180E-001	1.09956E-001	2.46726E-004	..........a	-327.66
	38	10.075	1.12124E-001	1.08915E-001	2.28592E-004	..........a	-327.66
EOC	QUANT	0.1121244	Open Circuit (V)
PSTATMODEL	IQUANT	7	Pstat Model
PSTATSECTION	LABEL	REF600P-43058	Pstat Section
PSTATSERIALNO	LABEL	43058	Pstat Serial Number
CTRLMODE	IQUANT	1	Control Mode
ELECTROMETER	IQUANT	0	RE=0 or CS=1
IESTAB	IQUANT	2	I/E Stability
CASPEED	IQUANT	4	Control Amp Speed
CONVENTION	IQUANT	1	Current Convention
ICHRANGE	IQUANT	2	Ich Range
ICHRANGEMODE	TOGGLE	F	Ich Auto Range
ICHOFFSETENABLE	TOGGLE	F	Ich Offset Enable
ICHOFFSET	QUANT	0	Ich Offset (V)
ICHFILTER	IQUANT	2	Ich Filter
VCHRANGE	IQUANT	2	Vch Range
VCHRANGEMODE	TOGGLE	F	Vch Auto Range
VCHOFFSETENABLE	TOGGLE	F	Vch Offset Enable
VCHOFFSET	QUANT	0	Vch Offset (V)
VCHFILTER	IQUANT	2	Vch Filter
ACHRANGE	IQUANT	2	Ach Range
ACHOFFSETENABLE	TOGGLE	F	Ach Offset Enable
ACHOFFSET	QUANT	0	Ach Offset (V)
ACHFILTER	IQUANT	1	Ach Filter
IERANGELOWERLIMIT	IQUANT	1	I/E Range Lower Limit
IERANGEMODE	TOGGLE	T	I/E AutoRange
IERANGE	IQUANT	4	I/E Range
POSFEEDENABLE	TOGGLE	F	Positive Feedback IR Comp
POSFEEDRESISTANCE	QUANT	0	Positive Feedback Resistance (ohm)
ACHSELECT	IQUANT	4	Ach Select
SENSECABLEID	IQUANT	7	Sense Cable ID
PWRCABLEID	IQUANT	7	Power Cable ID
DCCALDATE	LABEL	3/22/2024	DC Calibration Date
ACCALDATE	LABEL	3/22/2024	AC Calibration Date
THERMOSELECT	IQUANT	1	Thermo Select
FRAMEWORKVERSION	LABEL	7.8.4	Framework Version
INSTRUMENTVERSION	LABEL	4.42	Instrument Version
CURVE1	TABLE
	Pt	T	Vf	Im	Vu	Sig	Ach	IERange	Over	Temp
	#	s	V vs. Ref.	A	V	V	V	#	bits	deg C
	0	0.2	1.12168E-001	6.96096E-009	0.00000E+000	1.12100E-001	1.00449E-003	5	..........a	-327.66
	3	0.8	1.42179E-001	1.90145E-008	0.00000E+000	1.42100E-001	1.00789E-003	5	..........a	-327.66
	6	1.4	1.72259E-001	2.78858E-008	0.00000E+000	1.72100E-001	1.00469E-003	5	..........a	-327.66
	9	2	2.02161E-001	3.66640E-008	0.00000E+000	2.02100E-001	1.00679E-003	5	..........a	-327.66
	12	2.6	2.32066E-001	4.44155E-008	0.00000E+000	2.32100E-001	1.01439E-003	5	..........a	-327.66
	15	3.2	2.62100E-001	5.00409E-008	0.00000E+000	2.62100E-001	1.01439E-003	5	..........a	-327.66
	18	3.8	2.92148E-001	5.42012E-008	0.00000E+000	2.92100E-001	9.83292E-004	5	..........a	-327.66
	21	4.4	3.21874E-001	5.83459E-008	0.00000E+000	3.22100E-001	1.00269E-003	5	..........a	-327.66
	24	5	3.52068E-001	6.33129E-008	0.00000E+000	3.52100E-001	1.01779E-003	5	..........a	-327.66
	27	5.6	3.82043E-001	6.93233E-008	0.00000E+000	3.82100E-001	1.02589E-003	5	..........a	-327.66
	30	6.2	4.12135E-001	7.68964E-008	0.00000E+000	4.12100E-001	9.87892E-004	5	..........a	-327.66
	33	6.8	4.42047E-001	8.62359E-008	0.00000E+000	4.42100E-001	9.97992E-004	5	..........a	-327.66
	36	7.4	4.72077E-001	9.74045E-008	0.00000E+000	4.72100E-001	1.00169E-003	5	..........a	-327.66
	39	8	5.02037E-001	1.10125E-007	0.00000E+000	5.02100E-001	1.00379E-003	5	..........a	-327.66
	42	8.6	5.32131E-001	1.23511E-007	0.00000E+000	5.32100E-001	1.00139E-003	5	..........a	-327.66
	45	9.2	5.62003E-001	1.36701E-007	0.00000E+000	5.62100E-001	1.00579E-003	5	..........a	-327.66
	48	9.8	5.91992E-001	1.49735E-007	0.00000E+000	5.92100E-001	1.01799E-003	5	..........a	-327.66
	51	10.4	6.22006E-001	1.63021E-007	0.00000E+000	6.22100E-001	1.01499E-003	5	..........a	-327.66
	54	11	6.51991E-001	1.77054E-007	0.00000E+000	6.52100E-001	1.02129E-003	5	..........a	-327.66
	57	11.6	6.81951E-001	1.91914E-007	0.00000E+000	6.82100E-001	1.01559E-003	5	..........a	-327.66
	60	12.2	7.11924E-001	2.07728E-007	0.00000E+000	7.12100E-001	1.02109E-003	5	..........a	-327.66
	63	12.8	7.41984E-001	2.24719E-007	0.00000E+000	7.42100E-001	1.01059E-003	5	..........a	-327.66
[...]
	1085	217.2	-2.39871E-001	-6.22829E-009	0.00000E+000	-2.40000E-001	1.00749E-003	5	..........a	-327.66
	1086	217.4	-2.29888E-001	-4.55791E-009	0.00000E+000	-2.30000E-001	1.00099E-003	5	..........a	-327.66
	1087	217.6	-2.19856E-001	-2.90306E-009	0.00000E+000	-2.20000E-001	9.86192E-004	5	..........a	-327.66
	1088	217.8	-2.09937E-001	-1.21605E-009	0.00000E+000	-2.10000E-001	1.01749E-003	5	..........a	-327.66
	1089	218	-1.99952E-001	4.59244E-010	0.00000E+000	-2.00000E-001	1.00369E-003	5	..........a	-327.66
	1090	218.2	-1.90229E-001	2.05654E-009	0.00000E+000	-1.90000E-001	1.01059E-003	5	..........a	-327.66
	1091	218.4	-1.79924E-001	3.68501E-009	0.00000E+000	-1.80000E-001	9.88592E-004	5	..........a	-327.66
	1092	218.6	-1.69887E-001	5.31565E-009	0.00000E+000	-1.70000E-001	1.01619E-003	5	..........a	-327.66
	1093	218.8	-1.59996E-001	6.89061E-009	0.00000E+000	-1.60000E-001	1.01189E-003	5	..........a	-327.66
	1094	219	-1.49972E-001	8.45563E-009	0.00000E+000	-1.50000E-001	1.00249E-003	5	..........a	-327.66
	1095	219.2	-1.39865E-001	1.00104E-008	0.00000E+000	-1.40000E-001	1.01449E-003	5	..........a	-327.66
	1096	219.4	-1.29986E-001	1.15138E-008	0.00000E+000	-1.30000E-001	1.01119E-003	5	..........a	-327.66
	1097	219.6	-1.19985E-001	1.30217E-008	0.00000E+000	-1.20000E-001	1.00949E-003	5	..........a	-327.66
	1098	219.8	-1.09949E-001	1.45037E-008	0.00000E+000	-1.10000E-001	1.02129E-003	5	..........a	-327.66
	1099	220	-9.98831E-002	1.59770E-008	0.00000E+000	-1.00000E-001	1.00229E-003	5	..........a	-327.66
	1100	220.2	-8.99036E-002	1.74278E-008	0.00000E+000	-9.00000E-002	1.00169E-003	5	..........a	-327.66
	1101	220.4	-7.99680E-002	1.89063E-008	0.00000E+000	-8.00000E-002	1.01529E-003	5	..........a	-327.66
	1102	220.6	-6.99338E-002	2.03293E-008	0.00000E+000	-7.00000E-002	9.88192E-004	5	..........a	-327.66
	1103	220.8	-5.98357E-002	2.17815E-008	0.00000E+000	-6.00000E-002	1.00799E-003	5	..........a	-327.66
	1104	221	-4.99667E-002	2.32231E-008	0.00000E+000	-5.00000E-002	1.01149E-003	5	..........a	-327.66
	1105	221.2	-3.99152E-002	2.46652E-008	0.00000E+000	-4.00000E-002	1.00219E-003	5	..........a	-327.66
	1106	221.4	-2.99441E-002	2.60777E-008	0.00000E+000	-3.00000E-002	1.01849E-003	5	..........a	-327.66
	1107	221.6	-1.99022E-002	2.75509E-008	0.00000E+000	-2.00000E-002	1.01159E-003	5	..........a	-327.66
	1108	221.8	-9.92726E-003	2.90022E-008	0.00000E+000	-1.00000E-002	1.00669E-003	5	..........a	-327.66
	1109	222	8.84166E-006	3.04886E-008	0.00000E+000	7.45058E-009	1.03569E-003	5	..........a	-327.66
	1110	222.2	1.00961E-002	3.20112E-008	0.00000E+000	1.00000E-002	1.01019E-003	5	..........a	-327.66
	1111	222.4	2.00621E-002	3.35789E-008	0.00000E+000	2.00000E-002	1.02839E-003	5	..........a	-327.66
	1112	222.6	3.00600E-002	3.51769E-008	0.00000E+000	3.00000E-002	1.02099E-003	5	..........a	-327.66
	1113	222.8	4.00374E-002	3.68143E-008	0.00000E+000	4.00000E-002	1.01099E-003	5	..........a	-327.66
	1114	223	4.99985E-002	3.84955E-008	0.00000E+000	5.00000E-002	1.01649E-003	5	..........a	-327.66
	1115	223.2	6.00936E-002	4.02633E-008	0.00000E+000	6.00000E-002	1.00019E-003	5	..........a	-327.66
	1116	223.4	6.99997E-002	4.21046E-008	0.00000E+000	7.00000E-002	1.01109E-003	5	..........a	-327.66
	1117	223.6	7.99664E-002	4.39823E-008	0.00000E+000	8.00000E-002	1.02409E-003	5	..........a	-327.66
	1118	223.8	9.00840E-002	4.59880E-008	0.00000E+000	9.00000E-002	1.00129E-003	5	..........a	-327.66
	1119	224	1.00113E-001	4.81173E-008	0.00000E+000	1.00000E-001	1.00819E-003	5	..........a	-327.66
	1120	224.2	1.10079E-001	5.04056E-008	0.00000E+000	1.10000E-001	1.01669E-003	5	..........a	-327.66