Folder: GamryParser/example_project/raw_outputs (part 4)

File: 20240321_ZB_GM0016_HL03_E07_CV50k.DTA
EXPLAIN
TAG	CV
TITLE	LABEL	Cyclic Voltammetry	Test &Identifier
DATE	LABEL	3/21/2024	Date
TIME	LABEL	18:06:08	Time
NOTES	NOTES	1	&Notes...

PSTAT	PSTAT	REF600P-43058	Potentiostat
VINIT	POTEN	0.00000E+000	T	Initial &E (V)
VLIMIT1	POTEN	-6.00000E-001	F	Scan Limit &1 (V)
VLIMIT2	POTEN	8.00000E-001	F	Scan Limit &2 (V)
VFINAL	POTEN	0.00000E+000	T	Final &E (V)
SCANRATE	QUANT	4.99999E+004	&Scan Rate (mV/s)
STEPSIZE	QUANT	1.00000E+001	St&ep Size (mV)
CYCLES	IQUANT	10	C&ycles (#)
IMODE	SELECTOR	1	I/E Range &Mode
IRANGE	QUANT	1.00000E-005	&Max Current (mA)
AREA	QUANT	1.00000E+000	Electrode &Area (cm^2)
ELECTRODETYPE	SELECTOR	0	Electrode Type
STRIPPING	TOGGLE	F	Used for Stripping
POLARITY	TOGGLE	F	Signal Polarity
CONDIT	TWOPARAM	F	1.50000E+001	0.00000E+000	Conditionin&g	Time(s)	E(V)
DELAY	TWOPARAM	T	1.00000E+001	0.00000E+000	Init. De&lay	Time(s)	Stab.(mV/s)
EQDELAY	QUANT	1.00000E+001	Equil. &Time (s)
IRCOMP	SELECTOR	0	IRCom&p
PFCOR	QUANT	5.00000E+001	PF Corr. (ohm)
SAMPLINGMODE	SELECTOR	1	Sampling &Mode
OCVCURVE	TABLE	39
	Pt	T	Vf	Vm	Ach	Over	Temp
	#	s	V vs. Ref.	V	V	bits	deg C
	0	0.258333	4.25787E-001	4.25787E-001	2.31222E-004	..........a	-327.66
	1	0.516667	4.25790E-001	4.25913E-001	2.33756E-004	..........a	-327.66
	2	0.775	4.25806E-001	4.26120E-001	2.44222E-004	..........a	-327.66
	3	1.03333	4.25858E-001	4.26318E-001	2.39022E-004	..........a	-327.66
	4	1.29167	4.25959E-001	4.26375E-001	2.56222E-004	..........a	-327.66
	5	1.55	4.26094E-001	4.26376E-001	2.50289E-004	..........a	-327.66
	6	1.80833	4.26224E-001	4.26400E-001	2.39956E-004	..........a	-327.66
	7	2.06667	4.26319E-001	4.26466E-001	2.51622E-004	..........a	-327.66
	8	2.325	4.26380E-001	4.26597E-001	2.28022E-004	..........a	-327.66
	9	2.58333	4.26433E-001	4.26712E-001	2.26689E-004	..........a	-327.66
	10	2.84167	4.26501E-001	4.26803E-001	2.37356E-004	..........a	-327.66
	11	3.1	4.26590E-001	4.26932E-001	2.27356E-004	..........a	-327.66
	12	3.35833	4.26694E-001	4.27073E-001	2.37422E-004	..........a	-327.66
	13	3.61667	4.26808E-001	4.27170E-001	2.54489E-004	..........a	-327.66
	14	3.875	4.26927E-001	4.27284E-001	2.42556E-004	..........a	-327.66
	15	4.13333	4.27046E-001	4.27381E-001	2.36156E-004	..........a	-327.66
	16	4.39167	4.27160E-001	4.27483E-001	2.34156E-004	..........a	-327.66
	17	4.65	4.27269E-001	4.27597E-001	2.31556E-004	..........a	-327.66
	18	4.90833	4.27377E-001	4.27794E-001	2.33289E-004	..........a	-327.66
	19	5.16667	4.27492E-001	4.27954E-001	2.45289E-004	..........a	-327.66
	20	5.425	4.27623E-001	4.28012E-001	2.44356E-004	..........a	-327.66
	21	5.68333	4.27761E-001	4.28037E-001	2.43289E-004	..........a	-327.66
	22	5.94167	4.27883E-001	4.28086E-001	2.49489E-004	..........a	-327.66
	23	6.2	4.27976E-001	4.28199E-001	2.40356E-004	..........a	-327.66
	24	6.45833	4.28047E-001	4.28286E-001	2.27356E-004	..........a	-327.66
	25	6.71667	4.28115E-001	4.28361E-001	2.45489E-004	..........a	-327.66
	26	6.975	4.28191E-001	4.28478E-001	2.48756E-004	..........a	-327.66
	27	7.23333	4.28277E-001	4.28602E-001	2.38422E-004	..........a	-327.66
	28	7.49167	4.28372E-001	4.28717E-001	2.39756E-004	..........a	-327.66
	29	7.75	4.28477E-001	4.28807E-001	2.42022E-004	..........a	-327.66
	30	8.00833	4.28586E-001	4.28899E-001	2.46556E-004	..........a	-327.66
	31	8.26667	4.28694E-001	4.29002E-001	2.34089E-004	..........a	-327.66
	32	8.525	4.28797E-001	4.29091E-001	2.28556E-004	..........a	-327.66
	33	8.78333	4.28897E-001	4.29279E-001	2.36022E-004	..........a	-327.66
	34	9.04167	4.29004E-001	4.29496E-001	2.34556E-004	..........a	-327.66
	35	9.3	4.29131E-001	4.29585E-001	2.38889E-004	..........a	-327.66
	36	9.5583	4.29277E-001	4.29614E-001	2.43889E-004	..........a	-327.66
	37	9.8167	4.29417E-001	4.29652E-001	2.41556E-004	..........a	-327.66
	38	10.075	4.29528E-001	4.29731E-001	2.32956E-004	..........a	-327.66
EOC	QUANT	0.4295278	Open Circuit (V)
PSTATMODEL	IQUANT	7	Pstat Model
PSTATSECTION	LABEL	REF600P-43058	Pstat Section
PSTATSERIALNO	LABEL	43058	Pstat Serial Number
CTRLMODE	IQUANT	1	Control Mode
ELECTROMETER	IQUANT	0	RE=0 or CS=1
IESTAB	IQUANT	2	I/E Stability
CASPEED	IQUANT	4	Control Amp Speed
CONVENTION	IQUANT	1	Current Convention
ICHRANGE	IQUANT	2	Ich Range
ICHRANGEMODE	TOGGLE	F	Ich Auto Range
ICHOFFSETENABLE	TOGGLE	F	Ich Offset Enable
ICHOFFSET	QUANT	0	Ich Offset (V)
ICHFILTER	IQUANT	1	Ich Filter
VCHRANGE	IQUANT	2	Vch Range
VCHRANGEMODE	TOGGLE	F	Vch Auto Range
VCHOFFSETENABLE	TOGGLE	F	Vch Offset Enable
VCHOFFSET	QUANT	0	Vch Offset (V)
VCHFILTER	IQUANT	1	Vch Filter
ACHRANGE	IQUANT	2	Ach Range
ACHOFFSETENABLE	TOGGLE	F	Ach Offset Enable
ACHOFFSET	QUANT	0	Ach Offset (V)
ACHFILTER	IQUANT	1	Ach Filter
IERANGELOWERLIMIT	IQUANT	1	I/E Range Lower Limit
IERANGEMODE	TOGGLE	F	I/E AutoRange
IERANGE	IQUANT	4	I/E Range
POSFEEDENABLE	TOGGLE	F	Positive Feedback IR Comp
POSFEEDRESISTANCE	QUANT	0	Positive Feedback Resistance (ohm)
ACHSELECT	IQUANT	4	Ach Select
SENSECABLEID	IQUANT	7	Sense Cable ID
PWRCABLEID	IQUANT	7	Power Cable ID
DCCALDATE	LABEL	12/18/2023	DC Calibration Date
ACCALDATE	LABEL	12/18/2023	AC Calibration Date
THERMOSELECT	IQUANT	1	Thermo Select
FRAMEWORKVERSION	LABEL	7.8.4	Framework Version
INSTRUMENTVERSION	LABEL	4.42	Instrument Version
CURVE1	TABLE
	Pt	T	Vf	Im	Vu	Sig	Ach	IERange	Over	Temp
	#	s	V vs. Ref.	A	V	V	V	#	bits	deg C
	0	0.0002	4.29570E-001	2.37885E-011	0.00000E+000	4.29550E-001	8.00223E-005	4	..........a	-327.66
	3	0.0008	3.99470E-001	-1.10217E-010	0.00000E+000	3.99550E-001	8.00223E-005	4	..........a	-327.66
	6	0.0014	3.69620E-001	-2.62222E-010	0.00000E+000	3.69550E-001	8.00223E-005	4	..........a	-327.66
	9	0.002	3.39470E-001	-4.32229E-010	0.00000E+000	3.39550E-001	8.00223E-005	4	..........a	-327.66
	12	0.0026	3.09670E-001	-6.16236E-010	0.00000E+000	3.09550E-001	8.00223E-005	4	..........a	-327.66
	15	0.0032	2.79670E-001	-8.14244E-010	0.00000E+000	2.79550E-001	8.00223E-005	4	..........a	-327.66
	18	0.0038	2.49570E-001	-1.03125E-009	0.00000E+000	2.49550E-001	8.00223E-005	4	..........a	-327.66
	21	0.0044	2.19570E-001	-1.26726E-009	0.00000E+000	2.19550E-001	8.00223E-005	4	..........a	-327.66
	24	0.005	1.89570E-001	-1.53827E-009	0.00000E+000	1.89550E-001	8.00223E-005	4	..........a	-327.66
	27	0.0056	1.59570E-001	-1.82128E-009	0.00000E+000	1.59550E-001	-1.19978E-004	4	..........a	-327.66
	30	0.0062	1.29670E-001	-2.14629E-009	0.00000E+000	1.29550E-001	8.00223E-005	4	..........a	-327.66
	33	0.0068	9.95695E-002	-2.50231E-009	0.00000E+000	9.95500E-002	8.00223E-005	4	..........a	-327.66
	36	0.0074	6.95695E-002	-2.89832E-009	0.00000E+000	6.95500E-002	8.00223E-005	4	..........a	-327.66
	39	0.008	3.96195E-002	-3.33134E-009	0.00000E+000	3.95500E-002	8.00223E-005	4	..........a	-327.66
	42	0.0086	9.66952E-003	-3.81336E-009	0.00000E+000	9.55001E-003	8.00223E-005	4	..........a	-327.66
	45	0.0092	-2.04305E-002	-4.33238E-009	0.00000E+000	-2.04500E-002	8.00223E-005	4	..........a	-327.66
	48	0.0098	-5.05305E-002	-4.89140E-009	0.00000E+000	-5.04500E-002	8.00223E-005	4	..........a	-327.66
	51	0.0104	-8.03305E-002	-5.46942E-009	0.00000E+000	-8.04500E-002	8.00223E-005	4	..........a	-327.66
	54	0.011	-1.10330E-001	-6.09045E-009	0.00000E+000	-1.10450E-001	-3.19978E-004	4	..........a	-327.66
	57	0.0116	-1.40330E-001	-6.71647E-009	0.00000E+000	-1.40450E-001	8.00223E-005	4	..........a	-327.66
[...]
	2765	0.5532	7.79769E-001	9.74216E-009	0.00000E+000	7.80000E-001	-2.19978E-004	4	..........a	-327.66
	2766	0.5534	7.69870E-001	9.81816E-009	0.00000E+000	7.70000E-001	8.00223E-005	4	..........a	-327.66
	2767	0.5536	7.59869E-001	9.87017E-009	0.00000E+000	7.60000E-001	8.00223E-005	4	..........a	-327.66
	2768	0.5538	7.49969E-001	9.90217E-009	0.00000E+000	7.50000E-001	8.00223E-005	4	..........a	-327.66
	2769	0.554	7.40169E-001	9.91817E-009	0.00000E+000	7.40000E-001	8.00223E-005	4	..........a	-327.66
	2770	0.5542	7.29869E-001	9.92217E-009	0.00000E+000	7.30000E-001	1.80022E-004	4	..........a	-327.66
	2771	0.5544	7.19869E-001	9.91317E-009	0.00000E+000	7.20000E-001	8.00223E-005	4	..........a	-327.66
	2772	0.5546	7.09870E-001	9.88817E-009	0.00000E+000	7.10000E-001	8.00223E-005	4	..........a	-327.66
	2773	0.5548	6.99869E-001	9.85817E-009	0.00000E+000	7.00000E-001	8.00223E-005	4	..........a	-327.66
	2774	0.555	6.89869E-001	9.82216E-009	0.00000E+000	6.90000E-001	8.00223E-005	4	..........a	-327.66
	2775	0.5552	6.79869E-001	9.77816E-009	0.00000E+000	6.80000E-001	8.00223E-005	4	..........a	-327.66
	2776	0.5554	6.69969E-001	9.72416E-009	0.00000E+000	6.70000E-001	8.00223E-005	4	..........a	-327.66
	2777	0.5556	6.60069E-001	9.67416E-009	0.00000E+000	6.60000E-001	8.00223E-005	4	..........a	-327.66
	2778	0.5558	6.49969E-001	9.61516E-009	0.00000E+000	6.50000E-001	8.00223E-005	4	..........a	-327.66
	2779	0.556	6.39870E-001	9.54915E-009	0.00000E+000	6.40000E-001	8.00223E-005	4	..........a	-327.66
	2780	0.5562	6.29969E-001	9.48215E-009	0.00000E+000	6.30000E-001	8.00223E-005	4	..........a	-327.66
	2781	0.5564	6.19769E-001	9.41115E-009	0.00000E+000	6.20000E-001	8.00223E-005	4	..........a	-327.66
	2782	0.5566	6.09869E-001	9.33415E-009	0.00000E+000	6.10000E-001	8.00223E-005	4	..........a	-327.66
	2783	0.5568	5.99970E-001	9.25914E-009	0.00000E+000	6.00000E-001	8.00223E-005	4	..........a	-327.66
	2784	0.557	5.89969E-001	9.17814E-009	0.00000E+000	5.90000E-001	8.00223E-005	4	..........a	-327.66
	2785	0.5572	5.80220E-001	9.09514E-009	0.00000E+000	5.80000E-001	8.00223E-005	4	..........a	-327.66
	2786	0.5574	5.69869E-001	9.00813E-009	0.00000E+000	5.70000E-001	8.00223E-005	4	..........a	-327.66
	2787	0.5576	5.59969E-001	8.92413E-009	0.00000E+000	5.60000E-001	8.00223E-005	4	..........a	-327.66
	2788	0.5578	5.49869E-001	8.83213E-009	0.00000E+000	5.50000E-001	8.00223E-005	4	..........a	-327.66
	2789	0.558	5.39970E-001	8.73712E-009	0.00000E+000	5.40000E-001	8.00223E-005	4	..........a	-327.66
	2790	0.5582	5.29920E-001	8.64412E-009	0.00000E+000	5.30000E-001	8.00223E-005	4	..........a	-327.66
	2791	0.5584	5.19769E-001	8.54812E-009	0.00000E+000	5.20000E-001	8.00223E-005	4	..........a	-327.66
	2792	0.5586	5.09769E-001	8.45211E-009	0.00000E+000	5.10000E-001	8.00223E-005	4	..........a	-327.66
	2793	0.5588	4.99670E-001	8.35311E-009	0.00000E+000	5.00000E-001	8.00223E-005	4	..........a	-327.66
	2794	0.559	4.90070E-001	8.25010E-009	0.00000E+000	4.90000E-001	8.00223E-005	4	..........a	-327.66
	2795	0.5592	4.79670E-001	8.14610E-009	0.00000E+000	4.80000E-001	8.00223E-005	4	..........a	-327.66
	2796	0.5594	4.70070E-001	8.04010E-009	0.00000E+000	4.70000E-001	8.00223E-005	4	..........a	-327.66
	2797	0.5596	4.59970E-001	7.93009E-009	0.00000E+000	4.60000E-001	8.00223E-005	4	..........a	-327.66
	2798	0.5598	4.49570E-001	7.82009E-009	0.00000E+000	4.50000E-001	-3.19978E-004	4	..........a	-327.66
	2799	0.56	4.39970E-001	7.71108E-009	0.00000E+000	4.40000E-001	8.00223E-005	4	..........a	-327.66
	2800	0.5602	4.29970E-001	7.59708E-009	0.00000E+000	4.30000E-001	8.00223E-005	4	..........a	-327.66

File: 20240321_ZF_GM0016_HL03_E08_CV50k.DTA
EXPLAIN
TAG	CV
TITLE	LABEL	Cyclic Voltammetry	Test &Identifier
DATE	LABEL	3/21/2024	Date
TIME	LABEL	18:19:28	Time
NOTES	NOTES	1	&Notes...

PSTAT	PSTAT	REF600P-43058	Potentiostat
VINIT	POTEN	0.00000E+000	T	Initial &E (V)
VLIMIT1	POTEN	-6.00000E-001	F	Scan Limit &1 (V)
VLIMIT2	POTEN	8.00000E-001	F	Scan Limit &2 (V)
VFINAL	POTEN	0.00000E+000	T	Final &E (V)
SCANRATE	QUANT	4.99999E+004	&Scan Rate (mV/s)
STEPSIZE	QUANT	1.00000E+001	St&ep Size (mV)
CYCLES	IQUANT	10	C&ycles (#)
IMODE	SELECTOR	1	I/E Range &Mode
IRANGE	QUANT	1.00000E-005	&Max Current (mA)
AREA	QUANT	1.00000E+000	Electrode &Area (cm^2)
ELECTRODETYPE	SELECTOR	0	Electrode Type
STRIPPING	TOGGLE	F	Used for Stripping
POLARITY	TOGGLE	F	Signal Polarity
CONDIT	TWOPARAM	F	1.50000E+001	0.00000E+000	Conditionin&g	Time(s)	E(V)
DELAY	TWOPARAM	T	1.00000E+001	0.00000E+000	Init. De&lay	Time(s)	Stab.(mV/s)
EQDELAY	QUANT	1.00000E+001	Equil. &Time (s)
IRCOMP	SELECTOR	0	IRCom&p
PFCOR	QUANT	5.00000E+001	PF Corr. (ohm)
SAMPLINGMODE	SELECTOR	1	Sampling &Mode
OCVCURVE	TABLE	39
	Pt	T	Vf	Vm	Ach	Over	Temp
	#	s	V vs. Ref.	V	V	bits	deg C
	0	0.258333	4.45342E-001	4.45342E-001	2.45356E-004	..........a	-327.66
	1	0.516667	4.45349E-001	4.45692E-001	2.49089E-004	..........a	-327.66
	2	0.775	4.45390E-001	4.46012E-001	2.48556E-004	..........a	-327.66
	3	1.03333	4.45506E-001	4.46371E-001	2.42022E-004	..........a	-327.66
	4	1.29167	4.45715E-001	4.46710E-001	2.44889E-004	..........a	-327.66
	5	1.55	4.46003E-001	4.47107E-001	2.50889E-004	..........a	-327.66
	6	1.80833	4.46337E-001	4.47438E-001	2.42556E-004	..........a	-327.66
	7	2.06667	4.46693E-001	4.47788E-001	2.41422E-004	..........a	-327.66
	8	2.325	4.47053E-001	4.48115E-001	2.59156E-004	..........a	-327.66
	9	2.58333	4.47411E-001	4.48642E-001	2.55356E-004	..........a	-327.66
	10	2.84167	4.47772E-001	4.48815E-001	2.56022E-004	..........a	-327.66
	11	3.1	4.48135E-001	4.49086E-001	2.47422E-004	..........a	-327.66
	12	3.35833	4.48481E-001	4.49369E-001	2.36422E-004	..........a	-327.66
	13	3.61667	4.48788E-001	4.49415E-001	2.41756E-004	..........a	-327.66
	14	3.875	4.49051E-001	4.49702E-001	2.38622E-004	..........a	-327.66
	15	4.13333	4.49287E-001	4.50538E-001	2.46756E-004	..........a	-327.66
	16	4.39167	4.49553E-001	4.50765E-001	2.52356E-004	..........a	-327.66
	17	4.65	4.49900E-001	4.51181E-001	2.56822E-004	..........a	-327.66
	18	4.90833	4.50309E-001	4.51472E-001	2.50156E-004	..........a	-327.66
	19	5.16667	4.50725E-001	4.51980E-001	2.51956E-004	..........a	-327.66
	20	5.425	4.51119E-001	4.52107E-001	2.58489E-004	..........a	-327.66
	21	5.68333	4.51487E-001	4.52402E-001	2.38089E-004	..........a	-327.66
	22	5.94167	4.51822E-001	4.52816E-001	2.54222E-004	..........a	-327.66
	23	6.2	4.52132E-001	4.53092E-001	2.52222E-004	..........a	-327.66
	24	6.45833	4.52442E-001	4.53595E-001	2.56622E-004	..........a	-327.66
	25	6.71667	4.52772E-001	4.53757E-001	2.54556E-004	..........a	-327.66
	26	6.975	4.53114E-001	4.54054E-001	2.50156E-004	..........a	-327.66
	27	7.23333	4.53447E-001	4.54423E-001	2.58089E-004	..........a	-327.66
	28	7.49167	4.53763E-001	4.54748E-001	2.52756E-004	..........a	-327.66
	29	7.75	4.54077E-001	4.55213E-001	2.60756E-004	..........a	-327.66
	30	8.00833	4.54406E-001	4.55377E-001	2.42689E-004	..........a	-327.66
	31	8.26667	4.54746E-001	4.55683E-001	2.44422E-004	..........a	-327.66
	32	8.525	4.55075E-001	4.56021E-001	2.62289E-004	..........a	-327.66
	33	8.78333	4.55385E-001	4.56342E-001	2.47089E-004	..........a	-327.66
	34	9.04167	4.55692E-001	4.56795E-001	2.66356E-004	..........a	-327.66
	35	9.3	4.56011E-001	4.56944E-001	2.61689E-004	..........a	-327.66
	36	9.5583	4.56340E-001	4.57255E-001	2.48356E-004	..........a	-327.66
	37	9.8167	4.56659E-001	4.57612E-001	2.60022E-004	..........a	-327.66
	38	10.075	4.56963E-001	4.57914E-001	2.45089E-004	..........a	-327.66
EOC	QUANT	0.4569635	Open Circuit (V)
PSTATMODEL	IQUANT	7	Pstat Model
PSTATSECTION	LABEL	REF600P-43058	Pstat Section
PSTATSERIALNO	LABEL	43058	Pstat Serial Number
CTRLMODE	IQUANT	1	Control Mode
ELECTROMETER	IQUANT	0	RE=0 or CS=1
IESTAB	IQUANT	2	I/E Stability
CASPEED	IQUANT	4	Control Amp Speed
CONVENTION	IQUANT	1	Current Convention
ICHRANGE	IQUANT	2	Ich Range
ICHRANGEMODE	TOGGLE	F	Ich Auto Range
ICHOFFSETENABLE	TOGGLE	F	Ich Offset Enable
ICHOFFSET	QUANT	0	Ich Offset (V)
ICHFILTER	IQUANT	1	Ich Filter
VCHRANGE	IQUANT	2	Vch Range
VCHRANGEMODE	TOGGLE	F	Vch Auto Range
VCHOFFSETENABLE	TOGGLE	F	Vch Offset Enable
VCHOFFSET	QUANT	0	Vch Offset (V)
VCHFILTER	IQUANT	1	Vch Filter
ACHRANGE	IQUANT	2	Ach Range
ACHOFFSETENABLE	TOGGLE	F	Ach Offset Enable
ACHOFFSET	QUANT	0	Ach Offset (V)
ACHFILTER	IQUANT	1	Ach Filter
IERANGELOWERLIMIT	IQUANT	1	I/E Range Lower Limit
IERANGEMODE	TOGGLE	F	I/E AutoRange
IERANGE	IQUANT	4	I/E Range
POSFEEDENABLE	TOGGLE	F	Positive Feedback IR Comp
POSFEEDRESISTANCE	QUANT	0	Positive Feedback Resistance (ohm)
ACHSELECT	IQUANT	4	Ach Select
SENSECABLEID	IQUANT	7	Sense Cable ID
PWRCABLEID	IQUANT	7	Power Cable ID
DCCALDATE	LABEL	12/18/2023	DC Calibration Date
ACCALDATE	LABEL	12/18/2023	AC Calibration Date
THERMOSELECT	IQUANT	1	Thermo Select
FRAMEWORKVERSION	LABEL	7.8.4	Framework Version
INSTRUMENTVERSION	LABEL	4.42	Instrument Version
CURVE1	TABLE
	Pt	T	Vf	Im	Vu	Sig	Ach	IERange	Over	Temp
	#	s	V vs. Ref.	A	V	V	V	#	bits	deg C
	0	0.0002	4.57070E-001	1.97884E-011	0.00000E+000	4.56950E-001	8.00223E-005	4	..........a	-327.66
	3	0.0008	4.27170E-001	-9.42160E-011	0.00000E+000	4.26950E-001	8.00223E-005	4	..........a	-327.66
	6	0.0014	3.97070E-001	-2.19221E-010	0.00000E+000	3.96950E-001	8.00223E-005	4	..........a	-327.66
	9	0.002	3.66870E-001	-3.52226E-010	0.00000E+000	3.66950E-001	8.00223E-005	4	..........a	-327.66
	12	0.0026	3.37070E-001	-5.14232E-010	0.00000E+000	3.36950E-001	8.00223E-005	4	..........a	-327.66
	15	0.0032	3.06870E-001	-6.72238E-010	0.00000E+000	3.06950E-001	8.00223E-005	4	..........a	-327.66
	18	0.0038	2.76970E-001	-8.46245E-010	0.00000E+000	2.76950E-001	8.00223E-005	4	..........a	-327.66
	21	0.0044	2.46870E-001	-1.03725E-009	0.00000E+000	2.46950E-001	8.00223E-005	4	..........a	-327.66
	24	0.005	2.17070E-001	-1.24626E-009	0.00000E+000	2.16950E-001	8.00223E-005	4	..........a	-327.66
	27	0.0056	1.86970E-001	-1.47827E-009	0.00000E+000	1.86950E-001	8.00223E-005	4	..........a	-327.66
	30	0.0062	1.57070E-001	-1.72228E-009	0.00000E+000	1.56950E-001	8.00223E-005	4	..........a	-327.66
	33	0.0068	1.27070E-001	-1.99929E-009	0.00000E+000	1.26950E-001	8.00223E-005	4	..........a	-327.66
	36	0.0074	9.70695E-002	-2.29130E-009	0.00000E+000	9.69500E-002	8.00223E-005	4	..........a	-327.66
	39	0.008	6.69695E-002	-2.62831E-009	0.00000E+000	6.69500E-002	8.00223E-005	4	..........a	-327.66
	42	0.0086	3.70695E-002	-2.98033E-009	0.00000E+000	3.69500E-002	8.00223E-005	4	..........a	-327.66
	45	0.0092	6.96952E-003	-3.36334E-009	0.00000E+000	6.95001E-003	8.00223E-005	4	..........a	-327.66
	48	0.0098	-2.31305E-002	-3.76436E-009	0.00000E+000	-2.30500E-002	8.00223E-005	4	..........a	-327.66
	51	0.0104	-5.31305E-002	-4.18837E-009	0.00000E+000	-5.30500E-002	8.00223E-005	4	..........a	-327.66
	54	0.011	-8.30305E-002	-4.64439E-009	0.00000E+000	-8.30500E-002	-4.19978E-004	4	..........a	-327.66
	57	0.0116	-1.13130E-001	-5.10241E-009	0.00000E+000	-1.13050E-001	8.00223E-005	4	..........a	-327.66
[...]
	2766	0.5534	7.99869E-001	6.73205E-009	0.00000E+000	8.00000E-001	8.00223E-005	4	..........a	-327.66
CURVE11	TABLE
	Pt	T	Vf	Im	Vu	Sig	Ach	IERange	Over	Temp
	#	s	V vs. Ref.	A	V	V	V	#	bits	deg C
	2767	0.5536	7.89869E-001	6.82805E-009	0.00000E+000	7.90000E-001	-3.19978E-004	4	..........a	-327.66
	2768	0.5538	7.79869E-001	6.89005E-009	0.00000E+000	7.80000E-001	8.00223E-005	4	..........a	-327.66
	2769	0.554	7.69870E-001	6.93805E-009	0.00000E+000	7.70000E-001	8.00223E-005	4	..........a	-327.66
	2770	0.5542	7.59769E-001	6.96505E-009	0.00000E+000	7.60000E-001	8.00223E-005	4	..........a	-327.66
	2771	0.5544	7.49969E-001	6.97406E-009	0.00000E+000	7.50000E-001	8.00223E-005	4	..........a	-327.66
	2772	0.5546	7.39969E-001	6.97906E-009	0.00000E+000	7.40000E-001	8.00223E-005	4	..........a	-327.66
	2773	0.5548	7.29869E-001	6.97106E-009	0.00000E+000	7.30000E-001	8.00223E-005	4	..........a	-327.66
	2774	0.555	7.19819E-001	6.95405E-009	0.00000E+000	7.20000E-001	8.00223E-005	4	..........a	-327.66
	2775	0.5552	7.09870E-001	6.93205E-009	0.00000E+000	7.10000E-001	8.00223E-005	4	..........a	-327.66
	2776	0.5554	6.99869E-001	6.90705E-009	0.00000E+000	7.00000E-001	8.00223E-005	4	..........a	-327.66
	2777	0.5556	6.89969E-001	6.87405E-009	0.00000E+000	6.90000E-001	8.00223E-005	4	..........a	-327.66
	2778	0.5558	6.79869E-001	6.83705E-009	0.00000E+000	6.80000E-001	8.00223E-005	4	..........a	-327.66
	2779	0.556	6.69969E-001	6.79405E-009	0.00000E+000	6.70000E-001	8.00223E-005	4	..........a	-327.66
	2780	0.5562	6.59869E-001	6.74605E-009	0.00000E+000	6.60000E-001	8.00223E-005	4	..........a	-327.66
	2781	0.5564	6.49969E-001	6.70204E-009	0.00000E+000	6.50000E-001	8.00223E-005	4	..........a	-327.66
	2782	0.5566	6.39769E-001	6.65204E-009	0.00000E+000	6.40000E-001	-3.19978E-004	4	..........a	-327.66
	2783	0.5568	6.29869E-001	6.59204E-009	0.00000E+000	6.30000E-001	8.00223E-005	4	..........a	-327.66
	2784	0.557	6.19769E-001	6.53804E-009	0.00000E+000	6.20000E-001	8.00223E-005	4	..........a	-327.66
	2785	0.5572	6.09969E-001	6.48404E-009	0.00000E+000	6.10000E-001	8.00223E-005	4	..........a	-327.66
	2786	0.5574	5.99869E-001	6.42103E-009	0.00000E+000	6.00000E-001	8.00223E-005	4	..........a	-327.66
	2787	0.5576	5.89969E-001	6.36203E-009	0.00000E+000	5.90000E-001	8.00223E-005	4	..........a	-327.66
	2788	0.5578	5.80169E-001	6.29703E-009	0.00000E+000	5.80000E-001	8.00223E-005	4	..........a	-327.66
	2789	0.558	5.69969E-001	6.23103E-009	0.00000E+000	5.70000E-001	8.00223E-005	4	..........a	-327.66
	2790	0.5582	5.59869E-001	6.16702E-009	0.00000E+000	5.60000E-001	8.00223E-005	4	..........a	-327.66
	2791	0.5584	5.49969E-001	6.09902E-009	0.00000E+000	5.50000E-001	8.00223E-005	4	..........a	-327.66
	2792	0.5586	5.39769E-001	6.02902E-009	0.00000E+000	5.40000E-001	8.00223E-005	4	..........a	-327.66
	2793	0.5588	5.29970E-001	5.95402E-009	0.00000E+000	5.30000E-001	8.00223E-005	4	..........a	-327.66
	2794	0.559	5.19870E-001	5.88101E-009	0.00000E+000	5.20000E-001	8.00223E-005	4	..........a	-327.66
	2795	0.5592	5.09870E-001	5.81301E-009	0.00000E+000	5.10000E-001	8.00223E-005	4	..........a	-327.66
	2796	0.5594	5.00219E-001	5.73301E-009	0.00000E+000	5.00000E-001	8.00223E-005	4	..........a	-327.66
	2797	0.5596	4.89970E-001	5.65000E-009	0.00000E+000	4.90000E-001	8.00223E-005	4	..........a	-327.66
	2798	0.5598	4.79870E-001	5.58000E-009	0.00000E+000	4.80000E-001	8.00223E-005	4	..........a	-327.66
	2799	0.56	4.69970E-001	5.50200E-009	0.00000E+000	4.70000E-001	8.00223E-005	4	..........a	-327.66
	2800	0.5602	4.60070E-001	5.42200E-009	0.00000E+000	4.60000E-001	8.00223E-005	4	..........a	-327.66