Folder: GamryParser/example_project/raw_outputs (part 2)

File: 20240321_H_GM0016_HL03_E02_CV50k.DTA
EXPLAIN
TAG	CV
TITLE	LABEL	Cyclic Voltammetry	Test &Identifier
DATE	LABEL	3/21/2024	Date
TIME	LABEL	16:43:14	Time
NOTES	NOTES	1	&Notes...

PSTAT	PSTAT	REF600P-43058	Potentiostat
VINIT	POTEN	0.00000E+000	T	Initial &E (V)
VLIMIT1	POTEN	-6.00000E-001	F	Scan Limit &1 (V)
VLIMIT2	POTEN	8.00000E-001	F	Scan Limit &2 (V)
VFINAL	POTEN	0.00000E+000	T	Final &E (V)
SCANRATE	QUANT	4.99999E+004	&Scan Rate (mV/s)
STEPSIZE	QUANT	1.00000E+001	St&ep Size (mV)
CYCLES	IQUANT	10	C&ycles (#)
IMODE	SELECTOR	1	I/E Range &Mode
IRANGE	QUANT	1.00000E-005	&Max Current (mA)
AREA	QUANT	1.00000E+000	Electrode &Area (cm^2)
ELECTRODETYPE	SELECTOR	0	Electrode Type
STRIPPING	TOGGLE	F	Used for Stripping
POLARITY	TOGGLE	F	Signal Polarity
CONDIT	TWOPARAM	F	1.50000E+001	0.00000E+000	Conditionin&g	Time(s)	E(V)
DELAY	TWOPARAM	T	1.00000E+001	0.00000E+000	Init. De&lay	Time(s)	Stab.(mV/s)
EQDELAY	QUANT	1.00000E+001	Equil. &Time (s)
IRCOMP	SELECTOR	0	IRCom&p
PFCOR	QUANT	5.00000E+001	PF Corr. (ohm)
SAMPLINGMODE	SELECTOR	1	Sampling &Mode
OCVCURVE	TABLE	39
	Pt	T	Vf	Vm	Ach	Over	Temp
	#	s	V vs. Ref.	V	V	bits	deg C
	0	0.258333	3.06820E-001	3.06820E-001	2.28622E-004	..........a	-327.66
	1	0.516667	3.06827E-001	3.07163E-001	2.33622E-004	..........a	-327.66
	2	0.775	3.06866E-001	3.07426E-001	2.22489E-004	..........a	-327.66
	3	1.03333	3.06975E-001	3.07843E-001	2.31022E-004	..........a	-327.66
	4	1.29167	3.07174E-001	3.08060E-001	2.32222E-004	..........a	-327.66
	5	1.55	3.07442E-001	3.08293E-001	2.23022E-004	..........a	-327.66
	6	1.80833	3.07735E-001	3.08604E-001	2.16822E-004	..........a	-327.66
	7	2.06667	3.08023E-001	3.08894E-001	2.24956E-004	..........a	-327.66
	8	2.325	3.08304E-001	3.09164E-001	2.17289E-004	..........a	-327.66
	9	2.58333	3.08586E-001	3.09585E-001	2.25222E-004	..........a	-327.66
	10	2.84167	3.08878E-001	3.09749E-001	2.32822E-004	..........a	-327.66
	11	3.1	3.09177E-001	3.09994E-001	2.20889E-004	..........a	-327.66
	12	3.35833	3.09467E-001	3.10309E-001	2.19422E-004	..........a	-327.66
	13	3.61667	3.09742E-001	3.10610E-001	2.23622E-004	..........a	-327.66
	14	3.875	3.10014E-001	3.10938E-001	2.16622E-004	..........a	-327.66
	15	4.13333	3.10298E-001	3.11226E-001	2.32689E-004	..........a	-327.66
	16	4.39167	3.10593E-001	3.11439E-001	2.29222E-004	..........a	-327.66
	17	4.65	3.10887E-001	3.11719E-001	2.24422E-004	..........a	-327.66
	18	4.90833	3.11170E-001	3.12016E-001	2.35422E-004	..........a	-327.66
	19	5.16667	3.11442E-001	3.12287E-001	2.20889E-004	..........a	-327.66
	20	5.425	3.11714E-001	3.12636E-001	2.14422E-004	..........a	-327.66
	21	5.68333	3.11996E-001	3.12894E-001	2.33289E-004	..........a	-327.66
	22	5.94167	3.12286E-001	3.13111E-001	2.27689E-004	..........a	-327.66
	23	6.2	3.12573E-001	3.13399E-001	2.19289E-004	..........a	-327.66
	24	6.45833	3.12850E-001	3.13693E-001	2.35022E-004	..........a	-327.66
	25	6.71667	3.13118E-001	3.13944E-001	2.19356E-004	..........a	-327.66
	26	6.975	3.13389E-001	3.14309E-001	2.21089E-004	..........a	-327.66
	27	7.23333	3.13667E-001	3.14517E-001	2.32689E-004	..........a	-327.66
	28	7.49167	3.13950E-001	3.14755E-001	2.25022E-004	..........a	-327.66
	29	7.75	3.14229E-001	3.15039E-001	2.21422E-004	..........a	-327.66
	30	8.00833	3.14497E-001	3.15334E-001	2.26222E-004	..........a	-327.66
	31	8.26667	3.14760E-001	3.15588E-001	2.16956E-004	..........a	-327.66
	32	8.525	3.15029E-001	3.15939E-001	2.23156E-004	..........a	-327.66
	33	8.78333	3.15306E-001	3.16163E-001	2.29689E-004	..........a	-327.66
	34	9.04167	3.15590E-001	3.16400E-001	2.24222E-004	..........a	-327.66
	35	9.3	3.15869E-001	3.16664E-001	2.23822E-004	..........a	-327.66
	36	9.5583	3.16136E-001	3.16973E-001	2.22289E-004	..........a	-327.66
	37	9.8167	3.16399E-001	3.17227E-001	2.23222E-004	..........a	-327.66
	38	10.075	3.16665E-001	3.17548E-001	2.25089E-004	..........a	-327.66
EOC	QUANT	0.3166654	Open Circuit (V)
PSTATMODEL	IQUANT	7	Pstat Model
PSTATSECTION	LABEL	REF600P-43058	Pstat Section
PSTATSERIALNO	LABEL	43058	Pstat Serial Number
CTRLMODE	IQUANT	1	Control Mode
ELECTROMETER	IQUANT	0	RE=0 or CS=1
IESTAB	IQUANT	2	I/E Stability
CASPEED	IQUANT	4	Control Amp Speed
CONVENTION	IQUANT	1	Current Convention
ICHRANGE	IQUANT	2	Ich Range
ICHRANGEMODE	TOGGLE	F	Ich Auto Range
ICHOFFSETENABLE	TOGGLE	F	Ich Offset Enable
ICHOFFSET	QUANT	0	Ich Offset (V)
ICHFILTER	IQUANT	1	Ich Filter
VCHRANGE	IQUANT	2	Vch Range
VCHRANGEMODE	TOGGLE	F	Vch Auto Range
VCHOFFSETENABLE	TOGGLE	F	Vch Offset Enable
VCHOFFSET	QUANT	0	Vch Offset (V)
VCHFILTER	IQUANT	1	Vch Filter
ACHRANGE	IQUANT	2	Ach Range
ACHOFFSETENABLE	TOGGLE	F	Ach Offset Enable
ACHOFFSET	QUANT	0	Ach Offset (V)
ACHFILTER	IQUANT	1	Ach Filter
IERANGELOWERLIMIT	IQUANT	1	I/E Range Lower Limit
IERANGEMODE	TOGGLE	F	I/E AutoRange
IERANGE	IQUANT	4	I/E Range
POSFEEDENABLE	TOGGLE	F	Positive Feedback IR Comp
POSFEEDRESISTANCE	QUANT	0	Positive Feedback Resistance (ohm)
ACHSELECT	IQUANT	4	Ach Select
SENSECABLEID	IQUANT	7	Sense Cable ID
PWRCABLEID	IQUANT	7	Power Cable ID
DCCALDATE	LABEL	12/18/2023	DC Calibration Date
ACCALDATE	LABEL	12/18/2023	AC Calibration Date
THERMOSELECT	IQUANT	1	Thermo Select
FRAMEWORKVERSION	LABEL	7.8.4	Framework Version
INSTRUMENTVERSION	LABEL	4.42	Instrument Version
CURVE1	TABLE
	Pt	T	Vf	Im	Vu	Sig	Ach	IERange	Over	Temp
	#	s	V vs. Ref.	A	V	V	V	#	bits	deg C
	0	0.0002	3.16570E-001	2.47886E-011	0.00000E+000	3.16650E-001	8.00223E-005	4	..........a	-327.66
	3	0.0008	2.86570E-001	-1.15217E-010	0.00000E+000	2.86650E-001	8.00223E-005	4	..........a	-327.66
	6	0.0014	2.56570E-001	-2.90224E-010	0.00000E+000	2.56650E-001	-3.19978E-004	4	..........a	-327.66
	9	0.002	2.26770E-001	-4.78231E-010	0.00000E+000	2.26650E-001	8.00223E-005	4	..........a	-327.66
	12	0.0026	1.96470E-001	-7.01239E-010	0.00000E+000	1.96650E-001	8.00223E-005	4	..........a	-327.66
	15	0.0032	1.66670E-001	-9.40249E-010	0.00000E+000	1.66650E-001	8.00223E-005	4	..........a	-327.66
	18	0.0038	1.36870E-001	-1.20326E-009	0.00000E+000	1.36650E-001	8.00223E-005	4	..........a	-327.66
	21	0.0044	1.06570E-001	-1.49027E-009	0.00000E+000	1.06650E-001	8.00223E-005	4	..........a	-327.66
	24	0.005	7.66195E-002	-1.79628E-009	0.00000E+000	7.66500E-002	8.00223E-005	4	..........a	-327.66
	27	0.0056	4.66695E-002	-2.12529E-009	0.00000E+000	4.66500E-002	8.00223E-005	4	..........a	-327.66
	30	0.0062	1.66695E-002	-2.47531E-009	0.00000E+000	1.66500E-002	8.00223E-005	4	..........a	-327.66
	33	0.0068	-1.32305E-002	-2.84432E-009	0.00000E+000	-1.33500E-002	8.00223E-005	4	..........a	-327.66
	36	0.0074	-4.33305E-002	-3.23934E-009	0.00000E+000	-4.33500E-002	8.00223E-005	4	..........a	-327.66
	39	0.008	-7.32305E-002	-3.65235E-009	0.00000E+000	-7.33500E-002	8.00223E-005	4	..........a	-327.66
	42	0.0086	-1.03330E-001	-4.09137E-009	0.00000E+000	-1.03350E-001	8.00223E-005	4	..........a	-327.66
	45	0.0092	-1.33330E-001	-4.55239E-009	0.00000E+000	-1.33350E-001	8.00223E-005	4	..........a	-327.66
	48	0.0098	-1.63230E-001	-5.02841E-009	0.00000E+000	-1.63350E-001	8.00223E-005	4	..........a	-327.66
	51	0.0104	-1.93330E-001	-5.51942E-009	0.00000E+000	-1.93350E-001	8.00223E-005	4	..........a	-327.66
	54	0.011	-2.23330E-001	-6.03144E-009	0.00000E+000	-2.23350E-001	8.00223E-005	4	..........a	-327.66
	57	0.0116	-2.53330E-001	-6.55246E-009	0.00000E+000	-2.53350E-001	8.00223E-005	4	..........a	-327.66
[...]
	2765	0.5532	6.69869E-001	1.06982E-008	0.00000E+000	6.70000E-001	8.00223E-005	4	..........a	-327.66
	2766	0.5534	6.60269E-001	1.06352E-008	0.00000E+000	6.60000E-001	8.00223E-005	4	..........a	-327.66
	2767	0.5536	6.49769E-001	1.05662E-008	0.00000E+000	6.50000E-001	8.00223E-005	4	..........a	-327.66
	2768	0.5538	6.39870E-001	1.05002E-008	0.00000E+000	6.40000E-001	8.00223E-005	4	..........a	-327.66
	2769	0.554	6.29969E-001	1.04202E-008	0.00000E+000	6.30000E-001	8.00223E-005	4	..........a	-327.66
	2770	0.5542	6.19769E-001	1.03402E-008	0.00000E+000	6.20000E-001	8.00223E-005	4	..........a	-327.66
	2771	0.5544	6.09869E-001	1.02592E-008	0.00000E+000	6.10000E-001	8.00223E-005	4	..........a	-327.66
	2772	0.5546	5.99970E-001	1.01742E-008	0.00000E+000	6.00000E-001	8.00223E-005	4	..........a	-327.66
	2773	0.5548	5.89969E-001	1.00792E-008	0.00000E+000	5.90000E-001	8.00223E-005	4	..........a	-327.66
	2774	0.555	5.80069E-001	9.98817E-009	0.00000E+000	5.80000E-001	8.00223E-005	4	..........a	-327.66
	2775	0.5552	5.69869E-001	9.89117E-009	0.00000E+000	5.70000E-001	-2.19978E-004	4	..........a	-327.66
	2776	0.5554	5.59969E-001	9.79016E-009	0.00000E+000	5.60000E-001	8.00223E-005	4	..........a	-327.66
	2777	0.5556	5.49869E-001	9.69116E-009	0.00000E+000	5.50000E-001	8.00223E-005	4	..........a	-327.66
	2778	0.5558	5.39970E-001	9.58316E-009	0.00000E+000	5.40000E-001	8.00223E-005	4	..........a	-327.66
	2779	0.556	5.29819E-001	9.47315E-009	0.00000E+000	5.30000E-001	8.00223E-005	4	..........a	-327.66
	2780	0.5562	5.19719E-001	9.36715E-009	0.00000E+000	5.20000E-001	8.00223E-005	4	..........a	-327.66
	2781	0.5564	5.09870E-001	9.24614E-009	0.00000E+000	5.10000E-001	8.00223E-005	4	..........a	-327.66
	2782	0.5566	4.99770E-001	9.13314E-009	0.00000E+000	5.00000E-001	8.00223E-005	4	..........a	-327.66
	2783	0.5568	4.89770E-001	9.01013E-009	0.00000E+000	4.90000E-001	8.00223E-005	4	..........a	-327.66
	2784	0.557	4.79820E-001	8.88213E-009	0.00000E+000	4.80000E-001	8.00223E-005	4	..........a	-327.66
	2785	0.5572	4.69970E-001	8.75812E-009	0.00000E+000	4.70000E-001	8.00223E-005	4	..........a	-327.66
	2786	0.5574	4.60070E-001	8.62512E-009	0.00000E+000	4.60000E-001	8.00223E-005	4	..........a	-327.66
	2787	0.5576	4.50070E-001	8.49211E-009	0.00000E+000	4.50000E-001	8.00223E-005	4	..........a	-327.66
	2788	0.5578	4.39870E-001	8.35011E-009	0.00000E+000	4.40000E-001	8.00223E-005	4	..........a	-327.66
	2789	0.558	4.29870E-001	8.21010E-009	0.00000E+000	4.30000E-001	8.00223E-005	4	..........a	-327.66
	2790	0.5582	4.20070E-001	8.06410E-009	0.00000E+000	4.20000E-001	8.00223E-005	4	..........a	-327.66
	2791	0.5584	4.10070E-001	7.91209E-009	0.00000E+000	4.10000E-001	8.00223E-005	4	..........a	-327.66
	2792	0.5586	3.99970E-001	7.76509E-009	0.00000E+000	4.00000E-001	8.00223E-005	4	..........a	-327.66
	2793	0.5588	3.89970E-001	7.60908E-009	0.00000E+000	3.90000E-001	8.00223E-005	4	..........a	-327.66
	2794	0.559	3.80020E-001	7.44107E-009	0.00000E+000	3.80000E-001	8.00223E-005	4	..........a	-327.66
	2795	0.5592	3.69770E-001	7.27007E-009	0.00000E+000	3.70000E-001	8.00223E-005	4	..........a	-327.66
	2796	0.5594	3.59970E-001	7.10506E-009	0.00000E+000	3.60000E-001	8.00223E-005	4	..........a	-327.66
	2797	0.5596	3.49920E-001	6.93505E-009	0.00000E+000	3.50000E-001	8.00223E-005	4	..........a	-327.66
	2798	0.5598	3.40070E-001	6.75505E-009	0.00000E+000	3.40000E-001	8.00223E-005	4	..........a	-327.66
	2799	0.56	3.29970E-001	6.57104E-009	0.00000E+000	3.30000E-001	-2.19978E-004	4	..........a	-327.66
	2800	0.5602	3.19970E-001	6.38503E-009	0.00000E+000	3.20000E-001	8.00223E-005	4	..........a	-327.66

File: 20240321_L_GM0016_HL03_E03_CV50k.DTA
EXPLAIN
TAG	CV
TITLE	LABEL	Cyclic Voltammetry	Test &Identifier
DATE	LABEL	3/21/2024	Date
TIME	LABEL	16:59:26	Time
NOTES	NOTES	1	&Notes...

PSTAT	PSTAT	REF600P-43058	Potentiostat
VINIT	POTEN	0.00000E+000	T	Initial &E (V)
VLIMIT1	POTEN	-6.00000E-001	F	Scan Limit &1 (V)
VLIMIT2	POTEN	8.00000E-001	F	Scan Limit &2 (V)
VFINAL	POTEN	0.00000E+000	T	Final &E (V)
SCANRATE	QUANT	4.99999E+004	&Scan Rate (mV/s)
STEPSIZE	QUANT	1.00000E+001	St&ep Size (mV)
CYCLES	IQUANT	10	C&ycles (#)
IMODE	SELECTOR	1	I/E Range &Mode
IRANGE	QUANT	1.00000E-005	&Max Current (mA)
AREA	QUANT	1.00000E+000	Electrode &Area (cm^2)
ELECTRODETYPE	SELECTOR	0	Electrode Type
STRIPPING	TOGGLE	F	Used for Stripping
POLARITY	TOGGLE	F	Signal Polarity
CONDIT	TWOPARAM	F	1.50000E+001	0.00000E+000	Conditionin&g	Time(s)	E(V)
DELAY	TWOPARAM	T	1.00000E+001	0.00000E+000	Init. De&lay	Time(s)	Stab.(mV/s)
EQDELAY	QUANT	1.00000E+001	Equil. &Time (s)
IRCOMP	SELECTOR	0	IRCom&p
PFCOR	QUANT	5.00000E+001	PF Corr. (ohm)
SAMPLINGMODE	SELECTOR	1	Sampling &Mode
OCVCURVE	TABLE	39
	Pt	T	Vf	Vm	Ach	Over	Temp
	#	s	V vs. Ref.	V	V	bits	deg C
	0	0.258333	4.07269E-001	4.07269E-001	2.41156E-004	..........a	-327.66
	1	0.516667	4.07269E-001	4.07247E-001	2.47422E-004	..........a	-327.66
	2	0.775	4.07266E-001	4.07229E-001	2.44689E-004	..........a	-327.66
	3	1.03333	4.07259E-001	4.07218E-001	2.49356E-004	..........a	-327.66
	4	1.29167	4.07248E-001	4.07215E-001	2.48489E-004	..........a	-327.66
	5	1.55	4.07235E-001	4.07212E-001	2.54222E-004	..........a	-327.66
	6	1.80833	4.07225E-001	4.07214E-001	2.42289E-004	..........a	-327.66
	7	2.06667	4.07218E-001	4.07211E-001	2.43556E-004	..........a	-327.66
	8	2.325	4.07214E-001	4.07203E-001	2.44289E-004	..........a	-327.66
	9	2.58333	4.07211E-001	4.07202E-001	2.42422E-004	..........a	-327.66
	10	2.84167	4.07209E-001	4.07195E-001	2.41622E-004	..........a	-327.66
	11	3.1	4.07205E-001	4.07196E-001	2.46222E-004	..........a	-327.66
	12	3.35833	4.07201E-001	4.07186E-001	2.36222E-004	..........a	-327.66
	13	3.61667	4.07197E-001	4.07179E-001	2.40156E-004	..........a	-327.66
	14	3.875	4.07193E-001	4.07176E-001	2.50156E-004	..........a	-327.66
	15	4.13333	4.07187E-001	4.07170E-001	2.37089E-004	..........a	-327.66
	16	4.39167	4.07181E-001	4.07156E-001	2.42422E-004	..........a	-327.66
	17	4.65	4.07175E-001	4.07153E-001	2.43622E-004	..........a	-327.66
	18	4.90833	4.07168E-001	4.07149E-001	2.40956E-004	..........a	-327.66
	19	5.16667	4.07161E-001	4.07160E-001	2.38556E-004	..........a	-327.66
	20	5.425	4.07157E-001	4.07174E-001	2.34756E-004	..........a	-327.66
	21	5.68333	4.07157E-001	4.07172E-001	2.39889E-004	..........a	-327.66
	22	5.94167	4.07161E-001	4.07182E-001	2.35622E-004	..........a	-327.66
	23	6.2	4.07167E-001	4.07178E-001	2.36556E-004	..........a	-327.66
	24	6.45833	4.07173E-001	4.07176E-001	2.39756E-004	..........a	-327.66
	25	6.71667	4.07177E-001	4.07183E-001	2.42222E-004	..........a	-327.66
	26	6.975	4.07179E-001	4.07187E-001	2.38422E-004	..........a	-327.66
	27	7.23333	4.07180E-001	4.07191E-001	2.47422E-004	..........a	-327.66
	28	7.49167	4.07183E-001	4.07193E-001	2.42089E-004	..........a	-327.66
	29	7.75	4.07186E-001	4.07195E-001	2.51489E-004	..........a	-327.66
	30	8.00833	4.07190E-001	4.07199E-001	2.47289E-004	..........a	-327.66
	31	8.26667	4.07193E-001	4.07202E-001	2.49222E-004	..........a	-327.66
	32	8.525	4.07196E-001	4.07206E-001	2.48222E-004	..........a	-327.66
	33	8.78333	4.07199E-001	4.07209E-001	2.46089E-004	..........a	-327.66
	34	9.04167	4.07202E-001	4.07210E-001	2.39022E-004	..........a	-327.66
	35	9.3	4.07205E-001	4.07214E-001	2.47022E-004	..........a	-327.66
	36	9.5583	4.07208E-001	4.07216E-001	2.47356E-004	..........a	-327.66
	37	9.8167	4.07211E-001	4.07221E-001	2.46556E-004	..........a	-327.66
	38	10.075	4.07214E-001	4.07223E-001	2.40489E-004	..........a	-327.66
EOC	QUANT	0.4072137	Open Circuit (V)
PSTATMODEL	IQUANT	7	Pstat Model
PSTATSECTION	LABEL	REF600P-43058	Pstat Section
PSTATSERIALNO	LABEL	43058	Pstat Serial Number
CTRLMODE	IQUANT	1	Control Mode
ELECTROMETER	IQUANT	0	RE=0 or CS=1
IESTAB	IQUANT	2	I/E Stability
CASPEED	IQUANT	4	Control Amp Speed
CONVENTION	IQUANT	1	Current Convention
ICHRANGE	IQUANT	2	Ich Range
ICHRANGEMODE	TOGGLE	F	Ich Auto Range
ICHOFFSETENABLE	TOGGLE	F	Ich Offset Enable
ICHOFFSET	QUANT	0	Ich Offset (V)
ICHFILTER	IQUANT	1	Ich Filter
VCHRANGE	IQUANT	2	Vch Range
VCHRANGEMODE	TOGGLE	F	Vch Auto Range
VCHOFFSETENABLE	TOGGLE	F	Vch Offset Enable
VCHOFFSET	QUANT	0	Vch Offset (V)
VCHFILTER	IQUANT	1	Vch Filter
ACHRANGE	IQUANT	2	Ach Range
ACHOFFSETENABLE	TOGGLE	F	Ach Offset Enable
ACHOFFSET	QUANT	0	Ach Offset (V)
ACHFILTER	IQUANT	1	Ach Filter
IERANGELOWERLIMIT	IQUANT	1	I/E Range Lower Limit
IERANGEMODE	TOGGLE	F	I/E AutoRange
IERANGE	IQUANT	4	I/E Range
POSFEEDENABLE	TOGGLE	F	Positive Feedback IR Comp
POSFEEDRESISTANCE	QUANT	0	Positive Feedback Resistance (ohm)
ACHSELECT	IQUANT	4	Ach Select
SENSECABLEID	IQUANT	7	Sense Cable ID
PWRCABLEID	IQUANT	7	Power Cable ID
DCCALDATE	LABEL	12/18/2023	DC Calibration Date
ACCALDATE	LABEL	12/18/2023	AC Calibration Date
THERMOSELECT	IQUANT	1	Thermo Select
FRAMEWORKVERSION	LABEL	7.8.4	Framework Version
INSTRUMENTVERSION	LABEL	4.42	Instrument Version
CURVE1	TABLE
	Pt	T	Vf	Im	Vu	Sig	Ach	IERange	Over	Temp
	#	s	V vs. Ref.	A	V	V	V	#	bits	deg C
	0	0.0002	4.06970E-001	1.97884E-011	0.00000E+000	4.07200E-001	8.00223E-005	4	..........a	-327.66
	3	0.0008	3.77270E-001	-1.14217E-010	0.00000E+000	3.77200E-001	-2.19978E-004	4	..........a	-327.66
	6	0.0014	3.47070E-001	-2.80223E-010	0.00000E+000	3.47200E-001	8.00223E-005	4	..........a	-327.66
	9	0.002	3.17170E-001	-4.57230E-010	0.00000E+000	3.17200E-001	8.00223E-005	4	..........a	-327.66
	12	0.0026	2.87070E-001	-6.58238E-010	0.00000E+000	2.87200E-001	8.00223E-005	4	..........a	-327.66
	15	0.0032	2.57270E-001	-8.82246E-010	0.00000E+000	2.57200E-001	8.00223E-005	4	..........a	-327.66
	18	0.0038	2.27270E-001	-1.13826E-009	0.00000E+000	2.27200E-001	8.00223E-005	4	..........a	-327.66
	21	0.0044	1.97070E-001	-1.42627E-009	0.00000E+000	1.97200E-001	8.00223E-005	4	..........a	-327.66
	24	0.005	1.67470E-001	-1.75028E-009	0.00000E+000	1.67200E-001	8.00223E-005	4	..........a	-327.66
	27	0.0056	1.37170E-001	-2.11329E-009	0.00000E+000	1.37200E-001	8.00223E-005	4	..........a	-327.66
	30	0.0062	1.07370E-001	-2.51831E-009	0.00000E+000	1.07200E-001	8.00223E-005	4	..........a	-327.66
	33	0.0068	7.71695E-002	-2.97233E-009	0.00000E+000	7.72000E-002	8.00223E-005	4	..........a	-327.66
	36	0.0074	4.74695E-002	-3.45134E-009	0.00000E+000	4.72000E-002	8.00223E-005	4	..........a	-327.66
	39	0.008	1.73195E-002	-3.97437E-009	0.00000E+000	1.72000E-002	8.00223E-005	4	..........a	-327.66
	42	0.0086	-1.28305E-002	-4.54239E-009	0.00000E+000	-1.28000E-002	8.00223E-005	4	..........a	-327.66
	45	0.0092	-4.28305E-002	-5.13241E-009	0.00000E+000	-4.28000E-002	8.00223E-005	4	..........a	-327.66
	48	0.0098	-7.26305E-002	-5.74143E-009	0.00000E+000	-7.28000E-002	8.00223E-005	4	..........a	-327.66
	51	0.0104	-1.02730E-001	-6.38146E-009	0.00000E+000	-1.02800E-001	8.00223E-005	4	..........a	-327.66
	54	0.011	-1.32930E-001	-7.02048E-009	0.00000E+000	-1.32800E-001	8.00223E-005	4	..........a	-327.66
	57	0.0116	-1.62730E-001	-7.68851E-009	0.00000E+000	-1.62800E-001	8.00223E-005	4	..........a	-327.66
[...]
	2765	0.5532	7.59869E-001	1.09472E-008	0.00000E+000	7.60000E-001	8.00223E-005	4	..........a	-327.66
	2766	0.5534	7.49969E-001	1.09512E-008	0.00000E+000	7.50000E-001	8.00223E-005	4	..........a	-327.66
	2767	0.5536	7.39969E-001	1.09372E-008	0.00000E+000	7.40000E-001	8.00223E-005	4	..........a	-327.66
	2768	0.5538	7.29869E-001	1.09122E-008	0.00000E+000	7.30000E-001	8.00223E-005	4	..........a	-327.66
	2769	0.554	7.19969E-001	1.08692E-008	0.00000E+000	7.20000E-001	8.00223E-005	4	..........a	-327.66
	2770	0.5542	7.10019E-001	1.08192E-008	0.00000E+000	7.10000E-001	8.00223E-005	4	..........a	-327.66
	2771	0.5544	6.99869E-001	1.07662E-008	0.00000E+000	7.00000E-001	8.00223E-005	4	..........a	-327.66
	2772	0.5546	6.89869E-001	1.07042E-008	0.00000E+000	6.90000E-001	-2.19978E-004	4	..........a	-327.66
	2773	0.5548	6.80070E-001	1.06382E-008	0.00000E+000	6.80000E-001	8.00223E-005	4	..........a	-327.66
	2774	0.555	6.69869E-001	1.05692E-008	0.00000E+000	6.70000E-001	8.00223E-005	4	..........a	-327.66
	2775	0.5552	6.59819E-001	1.04912E-008	0.00000E+000	6.60000E-001	8.00223E-005	4	..........a	-327.66
	2776	0.5554	6.49969E-001	1.04062E-008	0.00000E+000	6.50000E-001	8.00223E-005	4	..........a	-327.66
	2777	0.5556	6.39669E-001	1.03222E-008	0.00000E+000	6.40000E-001	8.00223E-005	4	..........a	-327.66
	2778	0.5558	6.29969E-001	1.02362E-008	0.00000E+000	6.30000E-001	8.00223E-005	4	..........a	-327.66
	2779	0.556	6.19769E-001	1.01422E-008	0.00000E+000	6.20000E-001	-3.19978E-004	4	..........a	-327.66
	2780	0.5562	6.09969E-001	1.00472E-008	0.00000E+000	6.10000E-001	-4.19978E-004	4	..........a	-327.66
	2781	0.5564	5.99970E-001	9.94817E-009	0.00000E+000	6.00000E-001	8.00223E-005	4	..........a	-327.66
	2782	0.5566	5.89969E-001	9.84917E-009	0.00000E+000	5.90000E-001	8.00223E-005	4	..........a	-327.66
	2783	0.5568	5.79870E-001	9.74916E-009	0.00000E+000	5.80000E-001	8.00223E-005	4	..........a	-327.66
	2784	0.557	5.69869E-001	9.64116E-009	0.00000E+000	5.70000E-001	8.00223E-005	4	..........a	-327.66
	2785	0.5572	5.59869E-001	9.53215E-009	0.00000E+000	5.60000E-001	8.00223E-005	4	..........a	-327.66
	2786	0.5574	5.50070E-001	9.41815E-009	0.00000E+000	5.50000E-001	8.00223E-005	4	..........a	-327.66
	2787	0.5576	5.40069E-001	9.30415E-009	0.00000E+000	5.40000E-001	8.00223E-005	4	..........a	-327.66
	2788	0.5578	5.29869E-001	9.18714E-009	0.00000E+000	5.30000E-001	8.00223E-005	4	..........a	-327.66
	2789	0.558	5.19969E-001	9.06514E-009	0.00000E+000	5.20000E-001	8.00223E-005	4	..........a	-327.66
	2790	0.5582	5.09820E-001	8.94213E-009	0.00000E+000	5.10000E-001	8.00223E-005	4	..........a	-327.66
	2791	0.5584	5.00170E-001	8.81413E-009	0.00000E+000	5.00000E-001	8.00223E-005	4	..........a	-327.66
	2792	0.5586	4.89870E-001	8.69212E-009	0.00000E+000	4.90000E-001	8.00223E-005	4	..........a	-327.66
	2793	0.5588	4.79870E-001	8.56112E-009	0.00000E+000	4.80000E-001	8.00223E-005	4	..........a	-327.66
	2794	0.559	4.69870E-001	8.42611E-009	0.00000E+000	4.70000E-001	8.00223E-005	4	..........a	-327.66
	2795	0.5592	4.60070E-001	8.28911E-009	0.00000E+000	4.60000E-001	8.00223E-005	4	..........a	-327.66
	2796	0.5594	4.49970E-001	8.14510E-009	0.00000E+000	4.50000E-001	8.00223E-005	4	..........a	-327.66
	2797	0.5596	4.39870E-001	8.00410E-009	0.00000E+000	4.40000E-001	-3.19978E-004	4	..........a	-327.66
	2798	0.5598	4.29970E-001	7.85409E-009	0.00000E+000	4.30000E-001	8.00223E-005	4	..........a	-327.66
	2799	0.56	4.20070E-001	7.70208E-009	0.00000E+000	4.20000E-001	8.00223E-005	4	..........a	-327.66
	2800	0.5602	4.09770E-001	7.55008E-009	0.00000E+000	4.10000E-001	8.00223E-005	4	..........a	-327.66