Folder: GamryParser/example_project/raw_outputs (part 8)

File: 20240321_ZZL_GM0016_HL03_E16_CV50k.DTA
EXPLAIN
TAG	CV
TITLE	LABEL	Cyclic Voltammetry	Test &Identifier
DATE	LABEL	3/21/2024	Date
TIME	LABEL	20:06:59	Time
NOTES	NOTES	1	&Notes...

PSTAT	PSTAT	REF600P-43058	Potentiostat
VINIT	POTEN	0.00000E+000	T	Initial &E (V)
VLIMIT1	POTEN	-6.00000E-001	F	Scan Limit &1 (V)
VLIMIT2	POTEN	8.00000E-001	F	Scan Limit &2 (V)
VFINAL	POTEN	0.00000E+000	T	Final &E (V)
SCANRATE	QUANT	4.99999E+004	&Scan Rate (mV/s)
STEPSIZE	QUANT	1.00000E+001	St&ep Size (mV)
CYCLES	IQUANT	10	C&ycles (#)
IMODE	SELECTOR	1	I/E Range &Mode
IRANGE	QUANT	1.00000E-005	&Max Current (mA)
AREA	QUANT	1.00000E+000	Electrode &Area (cm^2)
ELECTRODETYPE	SELECTOR	0	Electrode Type
STRIPPING	TOGGLE	F	Used for Stripping
POLARITY	TOGGLE	F	Signal Polarity
CONDIT	TWOPARAM	F	1.50000E+001	0.00000E+000	Conditionin&g	Time(s)	E(V)
DELAY	TWOPARAM	T	1.00000E+001	0.00000E+000	Init. De&lay	Time(s)	Stab.(mV/s)
EQDELAY	QUANT	1.00000E+001	Equil. &Time (s)
IRCOMP	SELECTOR	0	IRCom&p
PFCOR	QUANT	5.00000E+001	PF Corr. (ohm)
SAMPLINGMODE	SELECTOR	1	Sampling &Mode
OCVCURVE	TABLE	39
	Pt	T	Vf	Vm	Ach	Over	Temp
	#	s	V vs. Ref.	V	V	bits	deg C
	0	0.258333	2.97982E-001	2.97982E-001	2.45222E-004	..........a	-327.66
	1	0.516667	2.97990E-001	2.98395E-001	2.68022E-004	..........a	-327.66
	2	0.775	2.98032E-001	2.98436E-001	2.65756E-004	..........a	-327.66
	3	1.03333	2.98131E-001	2.98644E-001	2.48622E-004	..........a	-327.66
	4	1.29167	2.98280E-001	2.98899E-001	2.44489E-004	..........a	-327.66
	5	1.55	2.98461E-001	2.99191E-001	2.54956E-004	..........a	-327.66
	6	1.80833	2.98667E-001	2.99412E-001	2.61222E-004	..........a	-327.66
	7	2.06667	2.98899E-001	2.99664E-001	2.42289E-004	..........a	-327.66
	8	2.325	2.99147E-001	3.00021E-001	2.72689E-004	..........a	-327.66
	9	2.58333	2.99405E-001	3.00124E-001	2.61422E-004	..........a	-327.66
	10	2.84167	2.99663E-001	3.00317E-001	2.57556E-004	..........a	-327.66
	11	3.1	2.99905E-001	3.00614E-001	2.52556E-004	..........a	-327.66
	12	3.35833	3.00130E-001	3.00847E-001	2.65356E-004	..........a	-327.66
	13	3.61667	3.00352E-001	3.01059E-001	2.50022E-004	..........a	-327.66
	14	3.875	3.00585E-001	3.01478E-001	2.61022E-004	..........a	-327.66
	15	4.13333	3.00835E-001	3.01636E-001	2.68289E-004	..........a	-327.66
	16	4.39167	3.01099E-001	3.01799E-001	2.51889E-004	..........a	-327.66
	17	4.65	3.01357E-001	3.01997E-001	2.56222E-004	..........a	-327.66
	18	4.90833	3.01591E-001	3.02284E-001	2.56689E-004	..........a	-327.66
	19	5.16667	3.01807E-001	3.02506E-001	2.66956E-004	..........a	-327.66
	20	5.425	3.02024E-001	3.02712E-001	2.47622E-004	..........a	-327.66
	21	5.68333	3.02252E-001	3.03134E-001	2.58156E-004	..........a	-327.66
	22	5.94167	3.02496E-001	3.03241E-001	2.66622E-004	..........a	-327.66
	23	6.2	3.02751E-001	3.03423E-001	2.51489E-004	..........a	-327.66
	24	6.45833	3.02998E-001	3.03632E-001	2.43489E-004	..........a	-327.66
	25	6.71667	3.03223E-001	3.03917E-001	2.55289E-004	..........a	-327.66
	26	6.975	3.03435E-001	3.04145E-001	2.44556E-004	..........a	-327.66
	27	7.23333	3.03653E-001	3.04348E-001	2.44089E-004	..........a	-327.66
	28	7.49167	3.03884E-001	3.04771E-001	2.57756E-004	..........a	-327.66
	29	7.75	3.04130E-001	3.04833E-001	2.55822E-004	..........a	-327.66
	30	8.00833	3.04382E-001	3.05025E-001	2.54822E-004	..........a	-327.66
	31	8.26667	3.04621E-001	3.05245E-001	2.55622E-004	..........a	-327.66
	32	8.525	3.04837E-001	3.05534E-001	2.56422E-004	..........a	-327.66
	33	8.78333	3.05044E-001	3.05743E-001	2.61822E-004	..........a	-327.66
	34	9.04167	3.05260E-001	3.05911E-001	2.57756E-004	..........a	-327.66
	35	9.3	3.05486E-001	3.06303E-001	2.49489E-004	..........a	-327.66
	36	9.5583	3.05720E-001	3.06452E-001	2.65489E-004	..........a	-327.66
	37	9.8167	3.05961E-001	3.06606E-001	2.52156E-004	..........a	-327.66
	38	10.075	3.06196E-001	3.06782E-001	2.46289E-004	..........a	-327.66
EOC	QUANT	0.3061958	Open Circuit (V)
PSTATMODEL	IQUANT	7	Pstat Model
PSTATSECTION	LABEL	REF600P-43058	Pstat Section
PSTATSERIALNO	LABEL	43058	Pstat Serial Number
CTRLMODE	IQUANT	1	Control Mode
ELECTROMETER	IQUANT	0	RE=0 or CS=1
IESTAB	IQUANT	2	I/E Stability
CASPEED	IQUANT	4	Control Amp Speed
CONVENTION	IQUANT	1	Current Convention
ICHRANGE	IQUANT	2	Ich Range
ICHRANGEMODE	TOGGLE	F	Ich Auto Range
ICHOFFSETENABLE	TOGGLE	F	Ich Offset Enable
ICHOFFSET	QUANT	0	Ich Offset (V)
ICHFILTER	IQUANT	1	Ich Filter
VCHRANGE	IQUANT	2	Vch Range
VCHRANGEMODE	TOGGLE	F	Vch Auto Range
VCHOFFSETENABLE	TOGGLE	F	Vch Offset Enable
VCHOFFSET	QUANT	0	Vch Offset (V)
VCHFILTER	IQUANT	1	Vch Filter
ACHRANGE	IQUANT	2	Ach Range
ACHOFFSETENABLE	TOGGLE	F	Ach Offset Enable
ACHOFFSET	QUANT	0	Ach Offset (V)
ACHFILTER	IQUANT	1	Ach Filter
IERANGELOWERLIMIT	IQUANT	1	I/E Range Lower Limit
IERANGEMODE	TOGGLE	F	I/E AutoRange
IERANGE	IQUANT	4	I/E Range
POSFEEDENABLE	TOGGLE	F	Positive Feedback IR Comp
POSFEEDRESISTANCE	QUANT	0	Positive Feedback Resistance (ohm)
ACHSELECT	IQUANT	4	Ach Select
SENSECABLEID	IQUANT	7	Sense Cable ID
PWRCABLEID	IQUANT	7	Power Cable ID
DCCALDATE	LABEL	12/18/2023	DC Calibration Date
ACCALDATE	LABEL	12/18/2023	AC Calibration Date
THERMOSELECT	IQUANT	1	Thermo Select
FRAMEWORKVERSION	LABEL	7.8.4	Framework Version
INSTRUMENTVERSION	LABEL	4.42	Instrument Version
CURVE1	TABLE
	Pt	T	Vf	Im	Vu	Sig	Ach	IERange	Over	Temp
	#	s	V vs. Ref.	A	V	V	V	#	bits	deg C
	0	0.0002	3.06070E-001	4.07892E-011	0.00000E+000	3.06200E-001	8.00223E-005	4	..........a	-327.66
	3	0.0008	2.76370E-001	-1.05216E-010	0.00000E+000	2.76200E-001	8.00223E-005	4	..........a	-327.66
	6	0.0014	2.46570E-001	-3.10224E-010	0.00000E+000	2.46200E-001	8.00223E-005	4	..........a	-327.66
	9	0.002	2.16270E-001	-5.54234E-010	0.00000E+000	2.16200E-001	8.00223E-005	4	..........a	-327.66
	12	0.0026	1.86270E-001	-8.42245E-010	0.00000E+000	1.86200E-001	8.00223E-005	4	..........a	-327.66
	15	0.0032	1.56270E-001	-1.15726E-009	0.00000E+000	1.56200E-001	8.00223E-005	4	..........a	-327.66
	18	0.0038	1.26070E-001	-1.51127E-009	0.00000E+000	1.26200E-001	8.00223E-005	4	..........a	-327.66
	21	0.0044	9.61695E-002	-1.89529E-009	0.00000E+000	9.62000E-002	8.00223E-005	4	..........a	-327.66
	24	0.005	6.62695E-002	-2.31430E-009	0.00000E+000	6.62000E-002	8.00223E-005	4	..........a	-327.66
	27	0.0056	3.62695E-002	-2.76632E-009	0.00000E+000	3.62000E-002	8.00223E-005	4	..........a	-327.66
	30	0.0062	6.26952E-003	-3.24334E-009	0.00000E+000	6.20000E-003	8.00223E-005	4	..........a	-327.66
	33	0.0068	-2.37305E-002	-3.75536E-009	0.00000E+000	-2.38000E-002	8.00223E-005	4	..........a	-327.66
	36	0.0074	-5.36305E-002	-4.30038E-009	0.00000E+000	-5.38000E-002	8.00223E-005	4	..........a	-327.66
	39	0.008	-8.37305E-002	-4.87440E-009	0.00000E+000	-8.38000E-002	8.00223E-005	4	..........a	-327.66
	42	0.0086	-1.13930E-001	-5.47042E-009	0.00000E+000	-1.13800E-001	8.00223E-005	4	..........a	-327.66
	45	0.0092	-1.43730E-001	-6.10445E-009	0.00000E+000	-1.43800E-001	8.00223E-005	4	..........a	-327.66
	48	0.0098	-1.73630E-001	-6.75747E-009	0.00000E+000	-1.73800E-001	8.00223E-005	4	..........a	-327.66
	51	0.0104	-2.03780E-001	-7.43550E-009	0.00000E+000	-2.03800E-001	8.00223E-005	4	..........a	-327.66
	54	0.011	-2.33730E-001	-8.13853E-009	0.00000E+000	-2.33800E-001	8.00223E-005	4	..........a	-327.66
	57	0.0116	-2.63630E-001	-8.87055E-009	0.00000E+000	-2.63800E-001	8.00223E-005	4	..........a	-327.66
[...]
	2765	0.5532	6.59869E-001	1.40143E-008	0.00000E+000	6.60000E-001	8.00223E-005	4	..........a	-327.66
	2766	0.5534	6.49769E-001	1.39703E-008	0.00000E+000	6.50000E-001	8.00223E-005	4	..........a	-327.66
	2767	0.5536	6.39669E-001	1.39143E-008	0.00000E+000	6.40000E-001	8.00223E-005	4	..........a	-327.66
	2768	0.5538	6.29869E-001	1.38583E-008	0.00000E+000	6.30000E-001	8.00223E-005	4	..........a	-327.66
	2769	0.554	6.19769E-001	1.37933E-008	0.00000E+000	6.20000E-001	-2.19978E-004	4	..........a	-327.66
	2770	0.5542	6.09769E-001	1.37193E-008	0.00000E+000	6.10000E-001	8.00223E-005	4	..........a	-327.66
	2771	0.5544	5.99819E-001	1.36413E-008	0.00000E+000	6.00000E-001	8.00223E-005	4	..........a	-327.66
	2772	0.5546	5.89969E-001	1.35573E-008	0.00000E+000	5.90000E-001	8.00223E-005	4	..........a	-327.66
	2773	0.5548	5.79870E-001	1.34623E-008	0.00000E+000	5.80000E-001	8.00223E-005	4	..........a	-327.66
	2774	0.555	5.69869E-001	1.33663E-008	0.00000E+000	5.70000E-001	8.00223E-005	4	..........a	-327.66
	2775	0.5552	5.59770E-001	1.32643E-008	0.00000E+000	5.60000E-001	8.00223E-005	4	..........a	-327.66
	2776	0.5554	5.49919E-001	1.31553E-008	0.00000E+000	5.50000E-001	8.00223E-005	4	..........a	-327.66
	2777	0.5556	5.39970E-001	1.30443E-008	0.00000E+000	5.40000E-001	8.00223E-005	4	..........a	-327.66
	2778	0.5558	5.29970E-001	1.29263E-008	0.00000E+000	5.30000E-001	8.00223E-005	4	..........a	-327.66
	2779	0.556	5.19870E-001	1.28063E-008	0.00000E+000	5.20000E-001	8.00223E-005	4	..........a	-327.66
	2780	0.5562	5.09870E-001	1.26803E-008	0.00000E+000	5.10000E-001	8.00223E-005	4	..........a	-327.66
	2781	0.5564	5.00170E-001	1.25473E-008	0.00000E+000	5.00000E-001	8.00223E-005	4	..........a	-327.66
	2782	0.5566	4.89870E-001	1.24153E-008	0.00000E+000	4.90000E-001	8.00223E-005	4	..........a	-327.66
	2783	0.5568	4.79970E-001	1.22753E-008	0.00000E+000	4.80000E-001	8.00223E-005	4	..........a	-327.66
	2784	0.557	4.70020E-001	1.21333E-008	0.00000E+000	4.70000E-001	8.00223E-005	4	..........a	-327.66
	2785	0.5572	4.59970E-001	1.19882E-008	0.00000E+000	4.60000E-001	8.00223E-005	4	..........a	-327.66
	2786	0.5574	4.49670E-001	1.18352E-008	0.00000E+000	4.50000E-001	8.00223E-005	4	..........a	-327.66
	2787	0.5576	4.39970E-001	1.16802E-008	0.00000E+000	4.40000E-001	8.00223E-005	4	..........a	-327.66
	2788	0.5578	4.29820E-001	1.15232E-008	0.00000E+000	4.30000E-001	8.00223E-005	4	..........a	-327.66
	2789	0.558	4.19970E-001	1.13562E-008	0.00000E+000	4.20000E-001	8.00223E-005	4	..........a	-327.66
	2790	0.5582	4.09970E-001	1.11942E-008	0.00000E+000	4.10000E-001	8.00223E-005	4	..........a	-327.66
	2791	0.5584	3.99770E-001	1.10232E-008	0.00000E+000	4.00000E-001	8.00223E-005	4	..........a	-327.66
	2792	0.5586	3.89970E-001	1.08462E-008	0.00000E+000	3.90000E-001	8.00223E-005	4	..........a	-327.66
	2793	0.5588	3.79870E-001	1.06772E-008	0.00000E+000	3.80000E-001	8.00223E-005	4	..........a	-327.66
	2794	0.559	3.69770E-001	1.04982E-008	0.00000E+000	3.70000E-001	8.00223E-005	4	..........a	-327.66
	2795	0.5592	3.59970E-001	1.03082E-008	0.00000E+000	3.60000E-001	8.00223E-005	4	..........a	-327.66
	2796	0.5594	3.49970E-001	1.01252E-008	0.00000E+000	3.50000E-001	8.00223E-005	4	..........a	-327.66
	2797	0.5596	3.40070E-001	9.93417E-009	0.00000E+000	3.40000E-001	8.00223E-005	4	..........a	-327.66
	2798	0.5598	3.30070E-001	9.73716E-009	0.00000E+000	3.30000E-001	8.00223E-005	4	..........a	-327.66
	2799	0.56	3.20070E-001	9.54415E-009	0.00000E+000	3.20000E-001	8.00223E-005	4	..........a	-327.66
	2800	0.5602	3.09970E-001	9.34215E-009	0.00000E+000	3.10000E-001	8.00223E-005	4	..........a	-327.66

File: 20240424_C_GM0016_HL03_E01_CV50.DTA
EXPLAIN
TAG	CV
TITLE	LABEL	Cyclic Voltammetry	Test &Identifier
DATE	LABEL	4/24/2024	Date
TIME	LABEL	16:38:07	Time
NOTES	NOTES	1	&Notes...

PSTAT	PSTAT	REF600P-43058	Potentiostat
VINIT	POTEN	0.00000E+000	T	Initial &E (V)
VLIMIT1	POTEN	-6.00000E-001	F	Scan Limit &1 (V)
VLIMIT2	POTEN	8.00000E-001	F	Scan Limit &2 (V)
VFINAL	POTEN	0.00000E+000	T	Final &E (V)
SCANRATE	QUANT	4.99999E+001	&Scan Rate (mV/s)
STEPSIZE	QUANT	1.00000E+001	St&ep Size (mV)
CYCLES	IQUANT	4	C&ycles (#)
IMODE	SELECTOR	0	I/E Range &Mode
IRANGE	QUANT	1.00000E-006	&Max Current (mA)
AREA	QUANT	1.00000E+000	Electrode &Area (cm^2)
ELECTRODETYPE	SELECTOR	0	Electrode Type
STRIPPING	TOGGLE	F	Used for Stripping
POLARITY	TOGGLE	F	Signal Polarity
CONDIT	TWOPARAM	F	1.50000E+001	0.00000E+000	Conditionin&g	Time(s)	E(V)
DELAY	TWOPARAM	T	1.00000E+001	0.00000E+000	Init. De&lay	Time(s)	Stab.(mV/s)
EQDELAY	QUANT	1.00000E+001	Equil. &Time (s)
IRCOMP	SELECTOR	0	IRCom&p
PFCOR	QUANT	5.00000E+001	PF Corr. (ohm)
SAMPLINGMODE	SELECTOR	1	Sampling &Mode
OCVCURVE	TABLE	39
	Pt	T	Vf	Vm	Ach	Over	Temp
	#	s	V vs. Ref.	V	V	bits	deg C
	0	0.258333	-2.38482E-001	-2.38482E-001	2.31926E-004	..........a	-327.66
	1	0.516667	-2.38458E-001	-2.37254E-001	2.22792E-004	..........a	-327.66
	2	0.775	-2.38314E-001	-2.36085E-001	2.27659E-004	..........a	-327.66
	3	1.03333	-2.37906E-001	-2.34961E-001	2.28326E-004	..........a	-327.66
	4	1.29167	-2.37175E-001	-2.33889E-001	2.21992E-004	..........a	-327.66
	5	1.55	-2.36202E-001	-2.32859E-001	2.32392E-004	..........a	-327.66
	6	1.80833	-2.35122E-001	-2.31873E-001	2.32526E-004	..........a	-327.66
	7	2.06667	-2.34033E-001	-2.30921E-001	2.24792E-004	..........a	-327.66
	8	2.325	-2.32983E-001	-2.30006E-001	2.19859E-004	..........a	-327.66
	9	2.58333	-2.31980E-001	-2.29134E-001	2.30126E-004	..........a	-327.66
	10	2.84167	-2.31022E-001	-2.28288E-001	2.22526E-004	..........a	-327.66
	11	3.1	-2.30105E-001	-2.27484E-001	2.32192E-004	..........a	-327.66
	12	3.35833	-2.29225E-001	-2.26708E-001	2.23659E-004	..........a	-327.66
	13	3.61667	-2.28380E-001	-2.25959E-001	2.32726E-004	..........a	-327.66
	14	3.875	-2.27569E-001	-2.25241E-001	2.31392E-004	..........a	-327.66
	15	4.13333	-2.26789E-001	-2.24546E-001	2.23526E-004	..........a	-327.66
	16	4.39167	-2.26038E-001	-2.23882E-001	2.29592E-004	..........a	-327.66
	17	4.65	-2.25316E-001	-2.23226E-001	2.34126E-004	..........a	-327.66
	18	4.90833	-2.24619E-001	-2.22596E-001	2.28392E-004	..........a	-327.66
	19	5.16667	-2.23945E-001	-2.21979E-001	2.27459E-004	..........a	-327.66
	20	5.425	-2.23292E-001	-2.21399E-001	2.22726E-004	..........a	-327.66
	21	5.68333	-2.22659E-001	-2.20819E-001	2.31992E-004	..........a	-327.66
	22	5.94167	-2.22046E-001	-2.20273E-001	2.34526E-004	..........a	-327.66
	23	6.2	-2.21454E-001	-2.19732E-001	2.25126E-004	..........a	-327.66
	24	6.45833	-2.20881E-001	-2.19216E-001	2.21592E-004	..........a	-327.66
	25	6.71667	-2.20326E-001	-2.18712E-001	2.35926E-004	..........a	-327.66
	26	6.975	-2.19788E-001	-2.18225E-001	2.37592E-004	..........a	-327.66
	27	7.23333	-2.19268E-001	-2.17750E-001	2.31392E-004	..........a	-327.66
	28	7.49167	-2.18762E-001	-2.17282E-001	2.20526E-004	..........a	-327.66
	29	7.75	-2.18272E-001	-2.16829E-001	2.24659E-004	..........a	-327.66
	30	8.00833	-2.17794E-001	-2.16390E-001	2.35259E-004	..........a	-327.66
	31	8.26667	-2.17328E-001	-2.15962E-001	2.39259E-004	..........a	-327.66
	32	8.525	-2.16874E-001	-2.15548E-001	2.24126E-004	..........a	-327.66
	33	8.78333	-2.16433E-001	-2.15146E-001	2.33326E-004	..........a	-327.66
	34	9.04167	-2.16005E-001	-2.14746E-001	2.24859E-004	..........a	-327.66
	35	9.3	-2.15588E-001	-2.14362E-001	2.23859E-004	..........a	-327.66
	36	9.5583	-2.15182E-001	-2.13986E-001	2.30459E-004	..........a	-327.66
	37	9.8167	-2.14786E-001	-2.13615E-001	2.29792E-004	..........a	-327.66
	38	10.075	-2.14399E-001	-2.13262E-001	2.29726E-004	..........a	-327.66
EOC	QUANT	-0.2143987	Open Circuit (V)
PSTATMODEL	IQUANT	7	Pstat Model
PSTATSECTION	LABEL	REF600P-43058	Pstat Section
PSTATSERIALNO	LABEL	43058	Pstat Serial Number
CTRLMODE	IQUANT	1	Control Mode
ELECTROMETER	IQUANT	0	RE=0 or CS=1
IESTAB	IQUANT	2	I/E Stability
CASPEED	IQUANT	4	Control Amp Speed
CONVENTION	IQUANT	1	Current Convention
ICHRANGE	IQUANT	2	Ich Range
ICHRANGEMODE	TOGGLE	F	Ich Auto Range
ICHOFFSETENABLE	TOGGLE	F	Ich Offset Enable
ICHOFFSET	QUANT	0	Ich Offset (V)
ICHFILTER	IQUANT	2	Ich Filter
VCHRANGE	IQUANT	2	Vch Range
VCHRANGEMODE	TOGGLE	F	Vch Auto Range
VCHOFFSETENABLE	TOGGLE	F	Vch Offset Enable
VCHOFFSET	QUANT	0	Vch Offset (V)
VCHFILTER	IQUANT	2	Vch Filter
ACHRANGE	IQUANT	2	Ach Range
ACHOFFSETENABLE	TOGGLE	F	Ach Offset Enable
ACHOFFSET	QUANT	0	Ach Offset (V)
ACHFILTER	IQUANT	1	Ach Filter
IERANGELOWERLIMIT	IQUANT	1	I/E Range Lower Limit
IERANGEMODE	TOGGLE	T	I/E AutoRange
IERANGE	IQUANT	3	I/E Range
POSFEEDENABLE	TOGGLE	F	Positive Feedback IR Comp
POSFEEDRESISTANCE	QUANT	0	Positive Feedback Resistance (ohm)
ACHSELECT	IQUANT	4	Ach Select
SENSECABLEID	IQUANT	7	Sense Cable ID
PWRCABLEID	IQUANT	7	Power Cable ID
DCCALDATE	LABEL	3/22/2024	DC Calibration Date
ACCALDATE	LABEL	3/22/2024	AC Calibration Date
THERMOSELECT	IQUANT	1	Thermo Select
FRAMEWORKVERSION	LABEL	7.8.4	Framework Version
INSTRUMENTVERSION	LABEL	4.42	Instrument Version
CURVE1	TABLE
	Pt	T	Vf	Im	Vu	Sig	Ach	IERange	Over	Temp
	#	s	V vs. Ref.	A	V	V	V	#	bits	deg C
	0	0.2	-2.14311E-001	-4.81701E-010	0.00000E+000	-2.14400E-001	9.80892E-004	5	..........a	-327.66
	2	0.6	-2.34273E-001	-4.83976E-009	0.00000E+000	-2.34400E-001	9.78692E-004	5	..........a	-327.66
	4	1	-2.54288E-001	-7.95110E-009	0.00000E+000	-2.54400E-001	9.64792E-004	5	..........a	-327.66
	6	1.4	-2.74259E-001	-1.06637E-008	0.00000E+000	-2.74400E-001	9.73992E-004	5	..........a	-327.66
	8	1.8	-2.94290E-001	-1.31371E-008	0.00000E+000	-2.94400E-001	9.80692E-004	5	..........a	-327.66
	10	2.2	-3.14256E-001	-1.55193E-008	0.00000E+000	-3.14400E-001	9.78992E-004	5	..........a	-327.66
	12	2.6	-3.34388E-001	-1.77896E-008	0.00000E+000	-3.34400E-001	9.89392E-004	5	..........a	-327.66
	14	3	-3.54254E-001	-2.00289E-008	0.00000E+000	-3.54400E-001	9.77292E-004	5	..........a	-327.66
	16	3.4	-3.74280E-001	-2.22456E-008	0.00000E+000	-3.74400E-001	9.77292E-004	5	..........a	-327.66
	18	3.8	-3.94248E-001	-2.44662E-008	0.00000E+000	-3.94400E-001	9.71692E-004	5	..........a	-327.66
	20	4.2	-4.14263E-001	-2.67570E-008	0.00000E+000	-4.14400E-001	9.95292E-004	5	..........a	-327.66
	22	4.6	-4.34225E-001	-2.90859E-008	0.00000E+000	-4.34400E-001	9.71992E-004	5	..........a	-327.66
	24	5	-4.54261E-001	-3.15140E-008	0.00000E+000	-4.54400E-001	9.72992E-004	5	..........a	-327.66
	26	5.4	-4.74232E-001	-3.39803E-008	0.00000E+000	-4.74400E-001	9.81992E-004	5	..........a	-327.66
	28	5.8	-4.94246E-001	-3.65427E-008	0.00000E+000	-4.94400E-001	9.70292E-004	5	..........a	-327.66
	30	6.2	-5.14195E-001	-3.91704E-008	0.00000E+000	-5.14400E-001	9.76592E-004	5	..........a	-327.66
	32	6.6	-5.34287E-001	-4.19350E-008	0.00000E+000	-5.34400E-001	9.85792E-004	5	..........a	-327.66
	34	7	-5.54227E-001	-4.47364E-008	0.00000E+000	-5.54400E-001	9.72792E-004	5	..........a	-327.66
	36	7.4	-5.74200E-001	-4.76382E-008	0.00000E+000	-5.74400E-001	9.80192E-004	5	..........a	-327.66
	38	7.8	-5.94173E-001	-5.07092E-008	0.00000E+000	-5.94400E-001	9.80592E-004	5	..........a	-327.66
[...]
	1050	210.2	4.89937E-001	2.38330E-008	0.00000E+000	4.90000E-001	9.78992E-004	5	..........a	-327.66
	1052	210.6	4.70029E-001	2.15764E-008	0.00000E+000	4.70000E-001	9.73192E-004	5	..........a	-327.66
	1054	211	4.50048E-001	1.89422E-008	0.00000E+000	4.50000E-001	9.72192E-004	5	..........a	-327.66
	1056	211.4	4.30022E-001	1.64408E-008	0.00000E+000	4.30000E-001	9.79592E-004	5	..........a	-327.66
	1058	211.8	4.09951E-001	1.36075E-008	0.00000E+000	4.10000E-001	9.86092E-004	5	..........a	-327.66
	1060	212.2	3.90045E-001	1.09327E-008	0.00000E+000	3.90000E-001	9.82692E-004	5	..........a	-327.66
	1062	212.6	3.70019E-001	8.52345E-009	0.00000E+000	3.70000E-001	9.69992E-004	5	..........a	-327.66
	1064	213	3.50028E-001	6.03743E-009	0.00000E+000	3.50000E-001	9.81992E-004	5	..........a	-327.66
	1066	213.4	3.30008E-001	3.80563E-009	0.00000E+000	3.30000E-001	9.87492E-004	5	..........a	-327.66
	1068	213.8	3.10018E-001	1.33429E-009	0.00000E+000	3.10000E-001	9.90892E-004	5	..........a	-327.66
	1070	214.2	2.90009E-001	-1.47399E-009	0.00000E+000	2.90000E-001	9.73392E-004	5	..........a	-327.66
	1072	214.6	2.70091E-001	-4.51076E-009	0.00000E+000	2.70000E-001	9.49992E-004	5	..........a	-327.66
	1074	215	2.50012E-001	-7.82439E-009	0.00000E+000	2.50000E-001	9.58692E-004	5	..........a	-327.66
	1076	215.4	2.30026E-001	-1.14735E-008	0.00000E+000	2.30000E-001	9.96092E-004	5	..........a	-327.66
	1078	215.8	2.10050E-001	-1.52511E-008	0.00000E+000	2.10000E-001	9.67592E-004	5	..........a	-327.66
	1080	216.2	1.90119E-001	-1.88572E-008	0.00000E+000	1.90000E-001	9.81792E-004	5	..........a	-327.66
	1082	216.6	1.70074E-001	-2.18933E-008	0.00000E+000	1.70000E-001	9.73792E-004	5	..........a	-327.66
	1084	217	1.50089E-001	-2.38187E-008	0.00000E+000	1.50000E-001	9.72692E-004	5	..........a	-327.66
	1086	217.4	1.30096E-001	-2.46085E-008	0.00000E+000	1.30000E-001	9.72592E-004	5	..........a	-327.66
	1088	217.8	1.10129E-001	-2.44173E-008	0.00000E+000	1.10000E-001	9.71992E-004	5	..........a	-327.66
	1090	218.2	9.01031E-002	-2.35848E-008	0.00000E+000	9.00000E-002	9.76892E-004	5	..........a	-327.66
	1092	218.6	7.00292E-002	-2.25184E-008	0.00000E+000	7.00000E-002	9.91392E-004	5	..........a	-327.66
	1094	219	5.00614E-002	-2.17832E-008	0.00000E+000	5.00000E-002	9.79592E-004	5	..........a	-327.66
	1096	219.4	3.00782E-002	-2.15963E-008	0.00000E+000	3.00000E-002	9.64392E-004	5	..........a	-327.66
	1098	219.8	1.01101E-002	-2.19060E-008	0.00000E+000	1.00000E-002	9.69792E-004	5	..........a	-327.66
	1100	220.2	-9.88791E-003	-2.26385E-008	0.00000E+000	-1.00000E-002	9.77192E-004	5	..........a	-327.66
	1102	220.6	-2.99288E-002	-2.37284E-008	0.00000E+000	-3.00000E-002	9.81992E-004	5	..........a	-327.66
	1104	221	-4.98795E-002	-2.50902E-008	0.00000E+000	-5.00000E-002	9.78892E-004	5	..........a	-327.66
	1106	221.4	-6.99042E-002	-2.66562E-008	0.00000E+000	-7.00000E-002	9.71592E-004	5	..........a	-327.66
	1108	221.8	-8.99061E-002	-2.83273E-008	0.00000E+000	-9.00000E-002	9.74992E-004	5	..........a	-327.66
	1110	222.2	-1.09927E-001	-3.00427E-008	0.00000E+000	-1.10000E-001	9.77292E-004	5	..........a	-327.66
	1112	222.6	-1.29912E-001	-3.17319E-008	0.00000E+000	-1.30000E-001	9.77192E-004	5	..........a	-327.66
	1114	223	-1.49950E-001	-3.34061E-008	0.00000E+000	-1.50000E-001	9.65692E-004	5	..........a	-327.66
	1116	223.4	-1.69877E-001	-3.50409E-008	0.00000E+000	-1.70000E-001	9.71392E-004	5	..........a	-327.66
	1118	223.8	-1.89907E-001	-3.67461E-008	0.00000E+000	-1.90000E-001	9.79092E-004	5	..........a	-327.66
	1120	224.2	-2.09899E-001	-3.84691E-008	0.00000E+000	-2.10000E-001	9.85692E-004	5	..........a	-327.66