Folder: GamryParser/example_project/raw_outputs (part 3)

File: 20240321_P_GM0016_HL03_E04_CV50k.DTA
EXPLAIN
TAG	CV
TITLE	LABEL	Cyclic Voltammetry	Test &Identifier
DATE	LABEL	3/21/2024	Date
TIME	LABEL	17:16:28	Time
NOTES	NOTES	1	&Notes...

PSTAT	PSTAT	REF600P-43058	Potentiostat
VINIT	POTEN	0.00000E+000	T	Initial &E (V)
VLIMIT1	POTEN	-6.00000E-001	F	Scan Limit &1 (V)
VLIMIT2	POTEN	8.00000E-001	F	Scan Limit &2 (V)
VFINAL	POTEN	0.00000E+000	T	Final &E (V)
SCANRATE	QUANT	4.99999E+004	&Scan Rate (mV/s)
STEPSIZE	QUANT	1.00000E+001	St&ep Size (mV)
CYCLES	IQUANT	10	C&ycles (#)
IMODE	SELECTOR	1	I/E Range &Mode
IRANGE	QUANT	1.00000E-005	&Max Current (mA)
AREA	QUANT	1.00000E+000	Electrode &Area (cm^2)
ELECTRODETYPE	SELECTOR	0	Electrode Type
STRIPPING	TOGGLE	F	Used for Stripping
POLARITY	TOGGLE	F	Signal Polarity
CONDIT	TWOPARAM	F	1.50000E+001	0.00000E+000	Conditionin&g	Time(s)	E(V)
DELAY	TWOPARAM	T	1.00000E+001	0.00000E+000	Init. De&lay	Time(s)	Stab.(mV/s)
EQDELAY	QUANT	1.00000E+001	Equil. &Time (s)
IRCOMP	SELECTOR	0	IRCom&p
PFCOR	QUANT	5.00000E+001	PF Corr. (ohm)
SAMPLINGMODE	SELECTOR	1	Sampling &Mode
OCVCURVE	TABLE	39
	Pt	T	Vf	Vm	Ach	Over	Temp
	#	s	V vs. Ref.	V	V	bits	deg C
	0	0.258333	5.40427E-001	5.40427E-001	2.51622E-004	..........a	-327.66
	1	0.516667	5.40429E-001	5.40568E-001	2.52156E-004	..........a	-327.66
	2	0.775	5.40446E-001	5.40701E-001	2.57356E-004	..........a	-327.66
	3	1.03333	5.40493E-001	5.40856E-001	2.52489E-004	..........a	-327.66
	4	1.29167	5.40580E-001	5.40993E-001	2.48622E-004	..........a	-327.66
	5	1.55	5.40698E-001	5.41093E-001	2.46022E-004	..........a	-327.66
	6	1.80833	5.40831E-001	5.41249E-001	2.47089E-004	..........a	-327.66
	7	2.06667	5.40968E-001	5.41474E-001	2.41756E-004	..........a	-327.66
	8	2.325	5.41111E-001	5.41611E-001	2.54022E-004	..........a	-327.66
	9	2.58333	5.41264E-001	5.41645E-001	2.56956E-004	..........a	-327.66
	10	2.84167	5.41415E-001	5.41740E-001	2.50022E-004	..........a	-327.66
	11	3.1	5.41545E-001	5.41853E-001	2.36822E-004	..........a	-327.66
	12	3.35833	5.41653E-001	5.41986E-001	2.44222E-004	..........a	-327.66
	13	3.61667	5.41754E-001	5.42119E-001	2.49289E-004	..........a	-327.66
	14	3.875	5.41861E-001	5.42251E-001	2.38822E-004	..........a	-327.66
	15	4.13333	5.41980E-001	5.42376E-001	2.56222E-004	..........a	-327.66
	16	4.39167	5.42107E-001	5.42521E-001	2.49889E-004	..........a	-327.66
	17	4.65	5.42238E-001	5.42638E-001	2.49756E-004	..........a	-327.66
	18	4.90833	5.42370E-001	5.42755E-001	2.42756E-004	..........a	-327.66
	19	5.16667	5.42500E-001	5.42918E-001	2.39956E-004	..........a	-327.66
	20	5.425	5.42631E-001	5.43090E-001	2.31556E-004	..........a	-327.66
	21	5.68333	5.42767E-001	5.43207E-001	2.61889E-004	..........a	-327.66
	22	5.94167	5.42910E-001	5.43312E-001	2.52756E-004	..........a	-327.66
	23	6.2	5.43051E-001	5.43411E-001	2.44356E-004	..........a	-327.66
	24	6.45833	5.43181E-001	5.43506E-001	2.42422E-004	..........a	-327.66
	25	6.71667	5.43297E-001	5.43635E-001	2.49422E-004	..........a	-327.66
	26	6.975	5.43406E-001	5.43761E-001	2.47156E-004	..........a	-327.66
	27	7.23333	5.43515E-001	5.43883E-001	2.46289E-004	..........a	-327.66
	28	7.49167	5.43630E-001	5.44029E-001	2.57689E-004	..........a	-327.66
	29	7.75	5.43753E-001	5.44163E-001	2.43889E-004	..........a	-327.66
	30	8.00833	5.43881E-001	5.44262E-001	2.40822E-004	..........a	-327.66
	31	8.26667	5.44011E-001	5.44391E-001	2.50889E-004	..........a	-327.66
	32	8.525	5.44139E-001	5.44559E-001	2.37422E-004	..........a	-327.66
	33	8.78333	5.44267E-001	5.44720E-001	2.49956E-004	..........a	-327.66
	34	9.04167	5.44402E-001	5.44824E-001	2.49422E-004	..........a	-327.66
	35	9.3	5.44542E-001	5.44889E-001	2.51822E-004	..........a	-327.66
	36	9.5583	5.44675E-001	5.45000E-001	2.48622E-004	..........a	-327.66
	37	9.8167	5.44793E-001	5.45111E-001	2.43356E-004	..........a	-327.66
	38	10.075	5.44898E-001	5.45238E-001	2.42622E-004	..........a	-327.66
EOC	QUANT	0.5448983	Open Circuit (V)
PSTATMODEL	IQUANT	7	Pstat Model
PSTATSECTION	LABEL	REF600P-43058	Pstat Section
PSTATSERIALNO	LABEL	43058	Pstat Serial Number
CTRLMODE	IQUANT	1	Control Mode
ELECTROMETER	IQUANT	0	RE=0 or CS=1
IESTAB	IQUANT	2	I/E Stability
CASPEED	IQUANT	4	Control Amp Speed
CONVENTION	IQUANT	1	Current Convention
ICHRANGE	IQUANT	2	Ich Range
ICHRANGEMODE	TOGGLE	F	Ich Auto Range
ICHOFFSETENABLE	TOGGLE	F	Ich Offset Enable
ICHOFFSET	QUANT	0	Ich Offset (V)
ICHFILTER	IQUANT	1	Ich Filter
VCHRANGE	IQUANT	2	Vch Range
VCHRANGEMODE	TOGGLE	F	Vch Auto Range
VCHOFFSETENABLE	TOGGLE	F	Vch Offset Enable
VCHOFFSET	QUANT	0	Vch Offset (V)
VCHFILTER	IQUANT	1	Vch Filter
ACHRANGE	IQUANT	2	Ach Range
ACHOFFSETENABLE	TOGGLE	F	Ach Offset Enable
ACHOFFSET	QUANT	0	Ach Offset (V)
ACHFILTER	IQUANT	1	Ach Filter
IERANGELOWERLIMIT	IQUANT	1	I/E Range Lower Limit
IERANGEMODE	TOGGLE	F	I/E AutoRange
IERANGE	IQUANT	4	I/E Range
POSFEEDENABLE	TOGGLE	F	Positive Feedback IR Comp
POSFEEDRESISTANCE	QUANT	0	Positive Feedback Resistance (ohm)
ACHSELECT	IQUANT	4	Ach Select
SENSECABLEID	IQUANT	7	Sense Cable ID
PWRCABLEID	IQUANT	7	Power Cable ID
DCCALDATE	LABEL	12/18/2023	DC Calibration Date
ACCALDATE	LABEL	12/18/2023	AC Calibration Date
THERMOSELECT	IQUANT	1	Thermo Select
FRAMEWORKVERSION	LABEL	7.8.4	Framework Version
INSTRUMENTVERSION	LABEL	4.42	Instrument Version
CURVE1	TABLE
	Pt	T	Vf	Im	Vu	Sig	Ach	IERange	Over	Temp
	#	s	V vs. Ref.	A	V	V	V	#	bits	deg C
	0	0.0002	5.44869E-001	1.67883E-011	0.00000E+000	5.44900E-001	8.00223E-005	4	..........a	-327.66
	3	0.0008	5.14870E-001	-1.06216E-010	0.00000E+000	5.14900E-001	8.00223E-005	4	..........a	-327.66
	6	0.0014	4.84870E-001	-2.47222E-010	0.00000E+000	4.84900E-001	8.00223E-005	4	..........a	-327.66
	9	0.002	4.54920E-001	-4.07228E-010	0.00000E+000	4.54900E-001	8.00223E-005	4	..........a	-327.66
	12	0.0026	4.25070E-001	-5.86235E-010	0.00000E+000	4.24900E-001	8.00223E-005	4	..........a	-327.66
	15	0.0032	3.94870E-001	-7.94243E-010	0.00000E+000	3.94900E-001	8.00223E-005	4	..........a	-327.66
	18	0.0038	3.64770E-001	-1.02225E-009	0.00000E+000	3.64900E-001	8.00223E-005	4	..........a	-327.66
	21	0.0044	3.34970E-001	-1.28726E-009	0.00000E+000	3.34900E-001	8.00223E-005	4	..........a	-327.66
	24	0.005	3.04970E-001	-1.59727E-009	0.00000E+000	3.04900E-001	8.00223E-005	4	..........a	-327.66
	27	0.0056	2.74870E-001	-1.96229E-009	0.00000E+000	2.74900E-001	8.00223E-005	4	..........a	-327.66
	30	0.0062	2.44870E-001	-2.38630E-009	0.00000E+000	2.44900E-001	8.00223E-005	4	..........a	-327.66
	33	0.0068	2.14870E-001	-2.88032E-009	0.00000E+000	2.14900E-001	8.00223E-005	4	..........a	-327.66
	36	0.0074	1.84970E-001	-3.46235E-009	0.00000E+000	1.84900E-001	8.00223E-005	4	..........a	-327.66
	39	0.008	1.54970E-001	-4.12137E-009	0.00000E+000	1.54900E-001	8.00223E-005	4	..........a	-327.66
	42	0.0086	1.24970E-001	-4.85640E-009	0.00000E+000	1.24900E-001	8.00223E-005	4	..........a	-327.66
	45	0.0092	9.49695E-002	-5.67443E-009	0.00000E+000	9.49000E-002	-4.19978E-004	4	..........a	-327.66
	48	0.0098	6.50695E-002	-6.55446E-009	0.00000E+000	6.49000E-002	8.00223E-005	4	..........a	-327.66
	51	0.0104	3.48695E-002	-7.50350E-009	0.00000E+000	3.49000E-002	8.00223E-005	4	..........a	-327.66
	54	0.011	4.96952E-003	-8.50254E-009	0.00000E+000	4.90000E-003	8.00223E-005	4	..........a	-327.66
	57	0.0116	-2.51305E-002	-9.50258E-009	0.00000E+000	-2.51000E-002	8.00223E-005	4	..........a	-327.66
	60	0.0122	-5.49305E-002	-1.04796E-008	0.00000E+000	-5.51000E-002	-3.19978E-004	4	..........a	-327.66
[...]
	2746	0.5494	5.30069E-001	6.13202E-009	0.00000E+000	5.30000E-001	8.00223E-005	4	..........a	-327.66
	2749	0.55	5.59969E-001	7.08906E-009	0.00000E+000	5.60000E-001	8.00223E-005	4	..........a	-327.66
	2752	0.5506	5.89969E-001	8.03110E-009	0.00000E+000	5.90000E-001	8.00223E-005	4	..........a	-327.66
	2755	0.5512	6.19669E-001	8.95913E-009	0.00000E+000	6.20000E-001	8.00223E-005	4	..........a	-327.66
	2758	0.5518	6.49870E-001	9.87817E-009	0.00000E+000	6.50000E-001	8.00223E-005	4	..........a	-327.66
	2761	0.5524	6.79569E-001	1.07952E-008	0.00000E+000	6.80000E-001	8.00223E-005	4	..........a	-327.66
	2764	0.553	7.09870E-001	1.17052E-008	0.00000E+000	7.10000E-001	8.00223E-005	4	..........a	-327.66
	2767	0.5536	7.39769E-001	1.26193E-008	0.00000E+000	7.40000E-001	8.00223E-005	4	..........a	-327.66
	2770	0.5542	7.69870E-001	1.35383E-008	0.00000E+000	7.70000E-001	8.00223E-005	4	..........a	-327.66
	2773	0.5548	7.99769E-001	1.44773E-008	0.00000E+000	8.00000E-001	8.00223E-005	4	..........a	-327.66
CURVE11	TABLE
	Pt	T	Vf	Im	Vu	Sig	Ach	IERange	Over	Temp
	#	s	V vs. Ref.	A	V	V	V	#	bits	deg C
	2774	0.555	7.89869E-001	1.46233E-008	0.00000E+000	7.90000E-001	8.00223E-005	4	..........a	-327.66
	2775	0.5552	7.79669E-001	1.47134E-008	0.00000E+000	7.80000E-001	8.00223E-005	4	..........a	-327.66
	2776	0.5554	7.69870E-001	1.47594E-008	0.00000E+000	7.70000E-001	8.00223E-005	4	..........a	-327.66
	2777	0.5556	7.59769E-001	1.47784E-008	0.00000E+000	7.60000E-001	8.00223E-005	4	..........a	-327.66
	2778	0.5558	7.49770E-001	1.47764E-008	0.00000E+000	7.50000E-001	8.00223E-005	4	..........a	-327.66
	2779	0.556	7.39670E-001	1.47514E-008	0.00000E+000	7.40000E-001	-3.19978E-004	4	..........a	-327.66
	2780	0.5562	7.29769E-001	1.47124E-008	0.00000E+000	7.30000E-001	8.00223E-005	4	..........a	-327.66
	2781	0.5564	7.19769E-001	1.46634E-008	0.00000E+000	7.20000E-001	8.00223E-005	4	..........a	-327.66
	2782	0.5566	7.09769E-001	1.45973E-008	0.00000E+000	7.10000E-001	8.00223E-005	4	..........a	-327.66
	2783	0.5568	6.99769E-001	1.45243E-008	0.00000E+000	7.00000E-001	8.00223E-005	4	..........a	-327.66
	2784	0.557	6.89770E-001	1.44453E-008	0.00000E+000	6.90000E-001	8.00223E-005	4	..........a	-327.66
	2785	0.5572	6.79869E-001	1.43553E-008	0.00000E+000	6.80000E-001	8.00223E-005	4	..........a	-327.66
	2786	0.5574	6.69869E-001	1.42613E-008	0.00000E+000	6.70000E-001	8.00223E-005	4	..........a	-327.66
	2787	0.5576	6.59869E-001	1.41563E-008	0.00000E+000	6.60000E-001	8.00223E-005	4	..........a	-327.66
	2788	0.5578	6.49870E-001	1.40443E-008	0.00000E+000	6.50000E-001	8.00223E-005	4	..........a	-327.66
	2789	0.558	6.39870E-001	1.39383E-008	0.00000E+000	6.40000E-001	8.00223E-005	4	..........a	-327.66
	2790	0.5582	6.29969E-001	1.38203E-008	0.00000E+000	6.30000E-001	8.00223E-005	4	..........a	-327.66
	2791	0.5584	6.19769E-001	1.36953E-008	0.00000E+000	6.20000E-001	8.00223E-005	4	..........a	-327.66
	2792	0.5586	6.09769E-001	1.35663E-008	0.00000E+000	6.10000E-001	-4.19978E-004	4	..........a	-327.66
	2793	0.5588	5.99970E-001	1.34403E-008	0.00000E+000	6.00000E-001	-1.19978E-004	4	..........a	-327.66
	2794	0.559	5.89969E-001	1.32963E-008	0.00000E+000	5.90000E-001	8.00223E-005	4	..........a	-327.66
	2795	0.5592	5.79769E-001	1.31563E-008	0.00000E+000	5.80000E-001	8.00223E-005	4	..........a	-327.66
	2796	0.5594	5.70069E-001	1.30143E-008	0.00000E+000	5.70000E-001	8.00223E-005	4	..........a	-327.66
	2797	0.5596	5.59969E-001	1.28603E-008	0.00000E+000	5.60000E-001	8.00223E-005	4	..........a	-327.66
	2798	0.5598	5.49869E-001	1.27063E-008	0.00000E+000	5.50000E-001	8.00223E-005	4	..........a	-327.66

File: 20240321_X_GM0016_HL03_E06_CV50k.DTA
EXPLAIN
TAG	CV
TITLE	LABEL	Cyclic Voltammetry	Test &Identifier
DATE	LABEL	3/21/2024	Date
TIME	LABEL	17:50:26	Time
NOTES	NOTES	1	&Notes...

PSTAT	PSTAT	REF600P-43058	Potentiostat
VINIT	POTEN	0.00000E+000	T	Initial &E (V)
VLIMIT1	POTEN	-6.00000E-001	F	Scan Limit &1 (V)
VLIMIT2	POTEN	8.00000E-001	F	Scan Limit &2 (V)
VFINAL	POTEN	0.00000E+000	T	Final &E (V)
SCANRATE	QUANT	4.99999E+004	&Scan Rate (mV/s)
STEPSIZE	QUANT	1.00000E+001	St&ep Size (mV)
CYCLES	IQUANT	10	C&ycles (#)
IMODE	SELECTOR	1	I/E Range &Mode
IRANGE	QUANT	1.00000E-005	&Max Current (mA)
AREA	QUANT	1.00000E+000	Electrode &Area (cm^2)
ELECTRODETYPE	SELECTOR	0	Electrode Type
STRIPPING	TOGGLE	F	Used for Stripping
POLARITY	TOGGLE	F	Signal Polarity
CONDIT	TWOPARAM	F	1.50000E+001	0.00000E+000	Conditionin&g	Time(s)	E(V)
DELAY	TWOPARAM	T	1.00000E+001	0.00000E+000	Init. De&lay	Time(s)	Stab.(mV/s)
EQDELAY	QUANT	1.00000E+001	Equil. &Time (s)
IRCOMP	SELECTOR	0	IRCom&p
PFCOR	QUANT	5.00000E+001	PF Corr. (ohm)
SAMPLINGMODE	SELECTOR	1	Sampling &Mode
OCVCURVE	TABLE	39
	Pt	T	Vf	Vm	Ach	Over	Temp
	#	s	V vs. Ref.	V	V	bits	deg C
	0	0.258333	4.84231E-001	4.84232E-001	2.42422E-004	..........a	-327.66
	1	0.516667	4.84237E-001	4.84509E-001	2.39422E-004	..........a	-327.66
	2	0.775	4.84270E-001	4.84812E-001	2.42489E-004	..........a	-327.66
	3	1.03333	4.84366E-001	4.85062E-001	2.35022E-004	..........a	-327.66
	4	1.29167	4.84542E-001	4.85421E-001	2.37489E-004	..........a	-327.66
	5	1.55	4.84783E-001	4.85656E-001	2.45422E-004	..........a	-327.66
	6	1.80833	4.85060E-001	4.85855E-001	2.42556E-004	..........a	-327.66
	7	2.06667	4.85342E-001	4.86119E-001	2.33756E-004	..........a	-327.66
	8	2.325	4.85608E-001	4.86409E-001	2.48222E-004	..........a	-327.66
	9	2.58333	4.85863E-001	4.86649E-001	2.26156E-004	..........a	-327.66
	10	2.84167	4.86119E-001	4.87039E-001	2.38022E-004	..........a	-327.66
	11	3.1	4.86388E-001	4.87260E-001	2.38022E-004	..........a	-327.66
	12	3.35833	4.86670E-001	4.87454E-001	2.35489E-004	..........a	-327.66
	13	3.61667	4.86950E-001	4.87722E-001	2.27222E-004	..........a	-327.66
	14	3.875	4.87214E-001	4.87992E-001	2.48822E-004	..........a	-327.66
	15	4.13333	4.87464E-001	4.88242E-001	2.40156E-004	..........a	-327.66
	16	4.39167	4.87715E-001	4.88592E-001	2.34289E-004	..........a	-327.66
	17	4.65	4.87978E-001	4.88847E-001	2.48422E-004	..........a	-327.66
	18	4.90833	4.88252E-001	4.89035E-001	2.34156E-004	..........a	-327.66
	19	5.16667	4.88527E-001	4.89293E-001	2.35756E-004	..........a	-327.66
	20	5.425	4.88790E-001	4.89577E-001	2.49822E-004	..........a	-327.66
	21	5.68333	4.89042E-001	4.89828E-001	2.36422E-004	..........a	-327.66
	22	5.94167	4.89294E-001	4.90147E-001	2.30489E-004	..........a	-327.66
	23	6.2	4.89556E-001	4.90436E-001	2.42489E-004	..........a	-327.66
	24	6.45833	4.89830E-001	4.90614E-001	2.39022E-004	..........a	-327.66
	25	6.71667	4.90104E-001	4.90864E-001	2.47822E-004	..........a	-327.66
	26	6.975	4.90366E-001	4.91126E-001	2.32889E-004	..........a	-327.66
	27	7.23333	4.90616E-001	4.91407E-001	2.40156E-004	..........a	-327.66
	28	7.49167	4.90863E-001	4.91645E-001	2.30556E-004	..........a	-327.66
	29	7.75	4.91117E-001	4.91981E-001	2.38222E-004	..........a	-327.66
	30	8.00833	4.91380E-001	4.92199E-001	2.38022E-004	..........a	-327.66
	31	8.26667	4.91649E-001	4.92407E-001	2.44356E-004	..........a	-327.66
	32	8.525	4.91914E-001	4.92680E-001	2.34022E-004	..........a	-327.66
	33	8.78333	4.92168E-001	4.92959E-001	2.38156E-004	..........a	-327.66
	34	9.04167	4.92417E-001	4.93186E-001	2.44822E-004	..........a	-327.66
	35	9.3	4.92669E-001	4.93531E-001	2.43356E-004	..........a	-327.66
	36	9.5583	4.92930E-001	4.93742E-001	2.41489E-004	..........a	-327.66
	37	9.8167	4.93197E-001	4.93943E-001	2.37489E-004	..........a	-327.66
	38	10.075	4.93459E-001	4.94226E-001	2.34022E-004	..........a	-327.66
EOC	QUANT	0.4934592	Open Circuit (V)
PSTATMODEL	IQUANT	7	Pstat Model
PSTATSECTION	LABEL	REF600P-43058	Pstat Section
PSTATSERIALNO	LABEL	43058	Pstat Serial Number
CTRLMODE	IQUANT	1	Control Mode
ELECTROMETER	IQUANT	0	RE=0 or CS=1
IESTAB	IQUANT	2	I/E Stability
CASPEED	IQUANT	4	Control Amp Speed
CONVENTION	IQUANT	1	Current Convention
ICHRANGE	IQUANT	2	Ich Range
ICHRANGEMODE	TOGGLE	F	Ich Auto Range
ICHOFFSETENABLE	TOGGLE	F	Ich Offset Enable
ICHOFFSET	QUANT	0	Ich Offset (V)
ICHFILTER	IQUANT	1	Ich Filter
VCHRANGE	IQUANT	2	Vch Range
VCHRANGEMODE	TOGGLE	F	Vch Auto Range
VCHOFFSETENABLE	TOGGLE	F	Vch Offset Enable
VCHOFFSET	QUANT	0	Vch Offset (V)
VCHFILTER	IQUANT	1	Vch Filter
ACHRANGE	IQUANT	2	Ach Range
ACHOFFSETENABLE	TOGGLE	F	Ach Offset Enable
ACHOFFSET	QUANT	0	Ach Offset (V)
ACHFILTER	IQUANT	1	Ach Filter
IERANGELOWERLIMIT	IQUANT	1	I/E Range Lower Limit
IERANGEMODE	TOGGLE	F	I/E AutoRange
IERANGE	IQUANT	4	I/E Range
POSFEEDENABLE	TOGGLE	F	Positive Feedback IR Comp
POSFEEDRESISTANCE	QUANT	0	Positive Feedback Resistance (ohm)
ACHSELECT	IQUANT	4	Ach Select
SENSECABLEID	IQUANT	7	Sense Cable ID
PWRCABLEID	IQUANT	7	Power Cable ID
DCCALDATE	LABEL	12/18/2023	DC Calibration Date
ACCALDATE	LABEL	12/18/2023	AC Calibration Date
THERMOSELECT	IQUANT	1	Thermo Select
FRAMEWORKVERSION	LABEL	7.8.4	Framework Version
INSTRUMENTVERSION	LABEL	4.42	Instrument Version
CURVE1	TABLE
	Pt	T	Vf	Im	Vu	Sig	Ach	IERange	Over	Temp
	#	s	V vs. Ref.	A	V	V	V	#	bits	deg C
	0	0.0002	4.93370E-001	1.87884E-011	0.00000E+000	4.93450E-001	8.00223E-005	4	..........a	-327.66
	3	0.0008	4.63470E-001	-1.15217E-010	0.00000E+000	4.63450E-001	8.00223E-005	4	..........a	-327.66
	6	0.0014	4.33370E-001	-2.66223E-010	0.00000E+000	4.33450E-001	8.00223E-005	4	..........a	-327.66
	9	0.002	4.03470E-001	-4.45229E-010	0.00000E+000	4.03450E-001	8.00223E-005	4	..........a	-327.66
	12	0.0026	3.73270E-001	-6.34237E-010	0.00000E+000	3.73450E-001	8.00223E-005	4	..........a	-327.66
	15	0.0032	3.43470E-001	-8.54245E-010	0.00000E+000	3.43450E-001	8.00223E-005	4	..........a	-327.66
	18	0.0038	3.13470E-001	-1.09425E-009	0.00000E+000	3.13450E-001	8.00223E-005	4	..........a	-327.66
	21	0.0044	2.83470E-001	-1.38027E-009	0.00000E+000	2.83450E-001	8.00223E-005	4	..........a	-327.66
	24	0.005	2.53670E-001	-1.70228E-009	0.00000E+000	2.53450E-001	8.00223E-005	4	..........a	-327.66
	27	0.0056	2.23470E-001	-2.07629E-009	0.00000E+000	2.23450E-001	8.00223E-005	4	..........a	-327.66
	30	0.0062	1.93470E-001	-2.50631E-009	0.00000E+000	1.93450E-001	8.00223E-005	4	..........a	-327.66
	33	0.0068	1.63470E-001	-2.99633E-009	0.00000E+000	1.63450E-001	8.00223E-005	4	..........a	-327.66
	36	0.0074	1.33670E-001	-3.54835E-009	0.00000E+000	1.33450E-001	8.00223E-005	4	..........a	-327.66
	39	0.008	1.03570E-001	-4.16537E-009	0.00000E+000	1.03450E-001	8.00223E-005	4	..........a	-327.66
	42	0.0086	7.36195E-002	-4.83640E-009	0.00000E+000	7.34500E-002	8.00223E-005	4	..........a	-327.66
	45	0.0092	4.36695E-002	-5.55543E-009	0.00000E+000	4.34500E-002	-3.19978E-004	4	..........a	-327.66
	48	0.0098	1.36695E-002	-6.30445E-009	0.00000E+000	1.34500E-002	8.00223E-005	4	..........a	-327.66
	51	0.0104	-1.65805E-002	-7.08448E-009	0.00000E+000	-1.65500E-002	8.00223E-005	4	..........a	-327.66
	54	0.011	-4.64305E-002	-7.87051E-009	0.00000E+000	-4.65500E-002	8.00223E-005	4	..........a	-327.66
	57	0.0116	-7.63305E-002	-8.66655E-009	0.00000E+000	-7.65500E-002	8.00223E-005	4	..........a	-327.66
	60	0.0122	-1.06430E-001	-9.45458E-009	0.00000E+000	-1.06550E-001	8.00223E-005	4	..........a	-327.66
[...]
	2760	0.5522	7.09870E-001	9.38215E-009	0.00000E+000	7.10000E-001	8.00223E-005	4	..........a	-327.66
	2763	0.5528	7.39869E-001	1.02572E-008	0.00000E+000	7.40000E-001	8.00223E-005	4	..........a	-327.66
	2766	0.5534	7.69769E-001	1.11432E-008	0.00000E+000	7.70000E-001	8.00223E-005	4	..........a	-327.66
	2769	0.554	7.99769E-001	1.20563E-008	0.00000E+000	8.00000E-001	-3.19978E-004	4	..........a	-327.66
CURVE11	TABLE
	Pt	T	Vf	Im	Vu	Sig	Ach	IERange	Over	Temp
	#	s	V vs. Ref.	A	V	V	V	#	bits	deg C
	2770	0.5542	7.90069E-001	1.22103E-008	0.00000E+000	7.90000E-001	8.00223E-005	4	..........a	-327.66
	2771	0.5544	7.79969E-001	1.23093E-008	0.00000E+000	7.80000E-001	8.00223E-005	4	..........a	-327.66
	2772	0.5546	7.69870E-001	1.23693E-008	0.00000E+000	7.70000E-001	8.00223E-005	4	..........a	-327.66
	2773	0.5548	7.59669E-001	1.24023E-008	0.00000E+000	7.60000E-001	8.00223E-005	4	..........a	-327.66
	2774	0.555	7.49969E-001	1.24163E-008	0.00000E+000	7.50000E-001	8.00223E-005	4	..........a	-327.66
	2775	0.5552	7.40070E-001	1.24103E-008	0.00000E+000	7.40000E-001	-3.19978E-004	4	..........a	-327.66
	2776	0.5554	7.29869E-001	1.23913E-008	0.00000E+000	7.30000E-001	8.00223E-005	4	..........a	-327.66
	2777	0.5556	7.19769E-001	1.23553E-008	0.00000E+000	7.20000E-001	8.00223E-005	4	..........a	-327.66
	2778	0.5558	7.09969E-001	1.23103E-008	0.00000E+000	7.10000E-001	8.00223E-005	4	..........a	-327.66
	2779	0.556	6.99769E-001	1.22563E-008	0.00000E+000	7.00000E-001	8.00223E-005	4	..........a	-327.66
	2780	0.5562	6.89770E-001	1.21953E-008	0.00000E+000	6.90000E-001	8.00223E-005	4	..........a	-327.66
	2781	0.5564	6.79969E-001	1.21283E-008	0.00000E+000	6.80000E-001	8.00223E-005	4	..........a	-327.66
	2782	0.5566	6.69969E-001	1.20532E-008	0.00000E+000	6.70000E-001	8.00223E-005	4	..........a	-327.66
	2783	0.5568	6.60069E-001	1.19742E-008	0.00000E+000	6.60000E-001	-3.19978E-004	4	..........a	-327.66
	2784	0.557	6.49669E-001	1.18942E-008	0.00000E+000	6.50000E-001	-3.19978E-004	4	..........a	-327.66
	2785	0.5572	6.39669E-001	1.18082E-008	0.00000E+000	6.40000E-001	-1.19978E-004	4	..........a	-327.66
	2786	0.5574	6.29869E-001	1.17102E-008	0.00000E+000	6.30000E-001	8.00223E-005	4	..........a	-327.66
	2787	0.5576	6.19769E-001	1.16172E-008	0.00000E+000	6.20000E-001	8.00223E-005	4	..........a	-327.66
	2788	0.5578	6.09670E-001	1.15132E-008	0.00000E+000	6.10000E-001	8.00223E-005	4	..........a	-327.66
	2789	0.558	5.99769E-001	1.14062E-008	0.00000E+000	6.00000E-001	8.00223E-005	4	..........a	-327.66
	2790	0.5582	5.89869E-001	1.13042E-008	0.00000E+000	5.90000E-001	8.00223E-005	4	..........a	-327.66
	2791	0.5584	5.79669E-001	1.11902E-008	0.00000E+000	5.80000E-001	8.00223E-005	4	..........a	-327.66
	2792	0.5586	5.69869E-001	1.10772E-008	0.00000E+000	5.70000E-001	8.00223E-005	4	..........a	-327.66
	2793	0.5588	5.59969E-001	1.09612E-008	0.00000E+000	5.60000E-001	8.00223E-005	4	..........a	-327.66
	2794	0.559	5.50070E-001	1.08372E-008	0.00000E+000	5.50000E-001	-3.19978E-004	4	..........a	-327.66
	2795	0.5592	5.39869E-001	1.07102E-008	0.00000E+000	5.40000E-001	8.00223E-005	4	..........a	-327.66
	2796	0.5594	5.29869E-001	1.05862E-008	0.00000E+000	5.30000E-001	8.00223E-005	4	..........a	-327.66
	2797	0.5596	5.20069E-001	1.04522E-008	0.00000E+000	5.20000E-001	8.00223E-005	4	..........a	-327.66
	2798	0.5598	5.09820E-001	1.03132E-008	0.00000E+000	5.10000E-001	-3.19978E-004	4	..........a	-327.66
	2799	0.56	4.99770E-001	1.01732E-008	0.00000E+000	5.00000E-001	8.00223E-005	4	..........a	-327.66
	2800	0.5602	4.89870E-001	1.00342E-008	0.00000E+000	4.90000E-001	8.00223E-005	4	..........a	-327.66