Folder: GamryParser/example_project/raw_outputs (part 11)

File: 20240424_W_GM0016_HL03_E06_CV50.DTA
EXPLAIN
TAG	CV
TITLE	LABEL	Cyclic Voltammetry	Test &Identifier
DATE	LABEL	4/24/2024	Date
TIME	LABEL	18:02:25	Time
NOTES	NOTES	1	&Notes...

PSTAT	PSTAT	REF600P-43058	Potentiostat
VINIT	POTEN	0.00000E+000	T	Initial &E (V)
VLIMIT1	POTEN	-6.00000E-001	F	Scan Limit &1 (V)
VLIMIT2	POTEN	8.00000E-001	F	Scan Limit &2 (V)
VFINAL	POTEN	0.00000E+000	T	Final &E (V)
SCANRATE	QUANT	4.99999E+001	&Scan Rate (mV/s)
STEPSIZE	QUANT	1.00000E+001	St&ep Size (mV)
CYCLES	IQUANT	4	C&ycles (#)
IMODE	SELECTOR	0	I/E Range &Mode
IRANGE	QUANT	1.00000E-005	&Max Current (mA)
AREA	QUANT	1.00000E+000	Electrode &Area (cm^2)
ELECTRODETYPE	SELECTOR	0	Electrode Type
STRIPPING	TOGGLE	F	Used for Stripping
POLARITY	TOGGLE	F	Signal Polarity
CONDIT	TWOPARAM	F	1.50000E+001	0.00000E+000	Conditionin&g	Time(s)	E(V)
DELAY	TWOPARAM	T	1.00000E+001	0.00000E+000	Init. De&lay	Time(s)	Stab.(mV/s)
EQDELAY	QUANT	1.00000E+001	Equil. &Time (s)
IRCOMP	SELECTOR	0	IRCom&p
PFCOR	QUANT	5.00000E+001	PF Corr. (ohm)
SAMPLINGMODE	SELECTOR	1	Sampling &Mode
OCVCURVE	TABLE	39
	Pt	T	Vf	Vm	Ach	Over	Temp
	#	s	V vs. Ref.	V	V	bits	deg C
	0	0.258333	-1.17313E-001	-1.17313E-001	2.49192E-004	..........a	-327.66
	1	0.516667	-1.17317E-001	-1.17539E-001	2.44859E-004	..........a	-327.66
	2	0.775	-1.17344E-001	-1.17763E-001	2.52059E-004	..........a	-327.66
	3	1.03333	-1.17420E-001	-1.17976E-001	2.49259E-004	..........a	-327.66
	4	1.29167	-1.17557E-001	-1.18193E-001	2.57926E-004	..........a	-327.66
	5	1.55	-1.17743E-001	-1.18411E-001	2.54726E-004	..........a	-327.66
	6	1.80833	-1.17953E-001	-1.18612E-001	2.42459E-004	..........a	-327.66
	7	2.06667	-1.18170E-001	-1.18819E-001	2.44326E-004	..........a	-327.66
	8	2.325	-1.18385E-001	-1.19039E-001	2.55059E-004	..........a	-327.66
	9	2.58333	-1.18597E-001	-1.19230E-001	2.40526E-004	..........a	-327.66
	10	2.84167	-1.18806E-001	-1.19427E-001	2.36459E-004	..........a	-327.66
	11	3.1	-1.19012E-001	-1.19612E-001	2.38592E-004	..........a	-327.66
	12	3.35833	-1.19212E-001	-1.19787E-001	2.65326E-004	..........a	-327.66
	13	3.61667	-1.19405E-001	-1.19964E-001	2.54059E-004	..........a	-327.66
	14	3.875	-1.19592E-001	-1.20144E-001	2.46459E-004	..........a	-327.66
	15	4.13333	-1.19773E-001	-1.20320E-001	2.51726E-004	..........a	-327.66
	16	4.39167	-1.19952E-001	-1.20491E-001	2.53726E-004	..........a	-327.66
	17	4.65	-1.20129E-001	-1.20661E-001	2.64126E-004	..........a	-327.66
	18	4.90833	-1.20304E-001	-1.20832E-001	2.32859E-004	..........a	-327.66
	19	5.16667	-1.20477E-001	-1.21006E-001	2.42992E-004	..........a	-327.66
	20	5.425	-1.20649E-001	-1.21181E-001	2.48859E-004	..........a	-327.66
	21	5.68333	-1.20821E-001	-1.21354E-001	2.45926E-004	..........a	-327.66
	22	5.94167	-1.20994E-001	-1.21563E-001	2.39459E-004	..........a	-327.66
	23	6.2	-1.21170E-001	-1.21684E-001	2.46859E-004	..........a	-327.66
	24	6.45833	-1.21346E-001	-1.21839E-001	2.50059E-004	..........a	-327.66
	25	6.71667	-1.21515E-001	-1.21985E-001	2.37326E-004	..........a	-327.66
	26	6.975	-1.21675E-001	-1.22139E-001	2.40392E-004	..........a	-327.66
	27	7.23333	-1.21828E-001	-1.22291E-001	2.41659E-004	..........a	-327.66
	28	7.49167	-1.21978E-001	-1.22444E-001	2.35459E-004	..........a	-327.66
	29	7.75	-1.22128E-001	-1.22597E-001	2.43592E-004	..........a	-327.66
	30	8.00833	-1.22280E-001	-1.22753E-001	2.51592E-004	..........a	-327.66
	31	8.26667	-1.22433E-001	-1.22909E-001	2.45792E-004	..........a	-327.66
	32	8.525	-1.22586E-001	-1.23064E-001	2.57392E-004	..........a	-327.66
	33	8.78333	-1.22741E-001	-1.23222E-001	2.54259E-004	..........a	-327.66
	34	9.04167	-1.22897E-001	-1.23378E-001	2.46926E-004	..........a	-327.66
	35	9.3	-1.23053E-001	-1.23534E-001	2.54526E-004	..........a	-327.66
	36	9.5583	-1.23209E-001	-1.23686E-001	2.40259E-004	..........a	-327.66
	37	9.8167	-1.23365E-001	-1.23835E-001	2.47259E-004	..........a	-327.66
	38	10.075	-1.23519E-001	-1.23974E-001	2.44459E-004	..........a	-327.66
EOC	QUANT	-0.1235192	Open Circuit (V)
PSTATMODEL	IQUANT	7	Pstat Model
PSTATSECTION	LABEL	REF600P-43058	Pstat Section
PSTATSERIALNO	LABEL	43058	Pstat Serial Number
CTRLMODE	IQUANT	1	Control Mode
ELECTROMETER	IQUANT	0	RE=0 or CS=1
IESTAB	IQUANT	2	I/E Stability
CASPEED	IQUANT	4	Control Amp Speed
CONVENTION	IQUANT	1	Current Convention
ICHRANGE	IQUANT	2	Ich Range
ICHRANGEMODE	TOGGLE	F	Ich Auto Range
ICHOFFSETENABLE	TOGGLE	F	Ich Offset Enable
ICHOFFSET	QUANT	0	Ich Offset (V)
ICHFILTER	IQUANT	2	Ich Filter
VCHRANGE	IQUANT	2	Vch Range
VCHRANGEMODE	TOGGLE	F	Vch Auto Range
VCHOFFSETENABLE	TOGGLE	F	Vch Offset Enable
VCHOFFSET	QUANT	0	Vch Offset (V)
VCHFILTER	IQUANT	2	Vch Filter
ACHRANGE	IQUANT	2	Ach Range
ACHOFFSETENABLE	TOGGLE	F	Ach Offset Enable
ACHOFFSET	QUANT	0	Ach Offset (V)
ACHFILTER	IQUANT	1	Ach Filter
IERANGELOWERLIMIT	IQUANT	1	I/E Range Lower Limit
IERANGEMODE	TOGGLE	T	I/E AutoRange
IERANGE	IQUANT	4	I/E Range
POSFEEDENABLE	TOGGLE	F	Positive Feedback IR Comp
POSFEEDRESISTANCE	QUANT	0	Positive Feedback Resistance (ohm)
ACHSELECT	IQUANT	4	Ach Select
SENSECABLEID	IQUANT	7	Sense Cable ID
PWRCABLEID	IQUANT	7	Power Cable ID
DCCALDATE	LABEL	3/22/2024	DC Calibration Date
ACCALDATE	LABEL	3/22/2024	AC Calibration Date
THERMOSELECT	IQUANT	1	Thermo Select
FRAMEWORKVERSION	LABEL	7.8.4	Framework Version
INSTRUMENTVERSION	LABEL	4.42	Instrument Version
CURVE1	TABLE
	Pt	T	Vf	Im	Vu	Sig	Ach	IERange	Over	Temp
	#	s	V vs. Ref.	A	V	V	V	#	bits	deg C
	0	0.2	-1.23480E-001	9.10110E-010	0.00000E+000	-1.23500E-001	1.01809E-003	5	..........a	-327.66
	2	0.6	-1.43451E-001	-2.27873E-009	0.00000E+000	-1.43500E-001	1.00279E-003	5	..........a	-327.66
	4	1	-1.63436E-001	-4.49195E-009	0.00000E+000	-1.63500E-001	1.02449E-003	5	..........a	-327.66
	6	1.4	-1.83464E-001	-6.52160E-009	0.00000E+000	-1.83500E-001	9.97992E-004	5	..........a	-327.66
	8	1.8	-2.03428E-001	-8.48980E-009	0.00000E+000	-2.03500E-001	9.99892E-004	5	..........a	-327.66
	10	2.2	-2.23418E-001	-1.04866E-008	0.00000E+000	-2.23500E-001	1.01639E-003	5	..........a	-327.66
	12	2.6	-2.43421E-001	-1.24004E-008	0.00000E+000	-2.43500E-001	1.01619E-003	5	..........a	-327.66
	14	3	-2.63419E-001	-1.43343E-008	0.00000E+000	-2.63500E-001	1.00059E-003	5	..........a	-327.66
	16	3.4	-2.83413E-001	-1.62791E-008	0.00000E+000	-2.83500E-001	1.00249E-003	5	..........a	-327.66
	18	3.8	-3.03408E-001	-1.82288E-008	0.00000E+000	-3.03500E-001	1.02349E-003	5	..........a	-327.66
	20	4.2	-3.23410E-001	-2.01893E-008	0.00000E+000	-3.23500E-001	1.00279E-003	5	..........a	-327.66
	22	4.6	-3.43432E-001	-2.21563E-008	0.00000E+000	-3.43500E-001	1.00799E-003	5	..........a	-327.66
	24	5	-3.63411E-001	-2.41086E-008	0.00000E+000	-3.63500E-001	1.00089E-003	5	..........a	-327.66
	26	5.4	-3.83431E-001	-2.61179E-008	0.00000E+000	-3.83500E-001	9.94592E-004	5	..........a	-327.66
	28	5.8	-4.03416E-001	-2.80538E-008	0.00000E+000	-4.03500E-001	9.88792E-004	5	..........a	-327.66
	30	6.2	-4.23390E-001	-2.99903E-008	0.00000E+000	-4.23500E-001	9.90292E-004	5	..........a	-327.66
	32	6.6	-4.43396E-001	-3.19125E-008	0.00000E+000	-4.43500E-001	9.92692E-004	5	..........a	-327.66
	34	7	-4.63368E-001	-3.38303E-008	0.00000E+000	-4.63500E-001	9.94592E-004	5	..........a	-327.66
	36	7.4	-4.83379E-001	-3.57226E-008	0.00000E+000	-4.83500E-001	1.01319E-003	5	..........a	-327.66
	38	7.8	-5.03385E-001	-3.76140E-008	0.00000E+000	-5.03500E-001	1.00609E-003	5	..........a	-327.66
[...]
	1085	217.2	2.30036E-001	-2.93206E-008	0.00000E+000	2.30000E-001	1.03599E-003	5	..........a	-327.66
	1086	217.4	2.20149E-001	-3.20654E-008	0.00000E+000	2.20000E-001	1.01609E-003	5	..........a	-327.66
	1087	217.6	2.10062E-001	-3.46219E-008	0.00000E+000	2.10000E-001	1.02709E-003	5	..........a	-327.66
	1088	217.8	2.00062E-001	-3.69335E-008	0.00000E+000	2.00000E-001	1.02929E-003	5	..........a	-327.66
	1089	218	1.90119E-001	-3.88000E-008	0.00000E+000	1.90000E-001	1.01059E-003	5	..........a	-327.66
	1090	218.2	1.80122E-001	-4.00766E-008	0.00000E+000	1.80000E-001	9.92092E-004	5	..........a	-327.66
	1091	218.4	1.70093E-001	-4.06716E-008	0.00000E+000	1.70000E-001	1.00029E-003	5	..........a	-327.66
	1092	218.6	1.60091E-001	-4.05060E-008	0.00000E+000	1.60000E-001	1.01449E-003	5	..........a	-327.66
	1093	218.8	1.50097E-001	-3.96838E-008	0.00000E+000	1.50000E-001	1.01679E-003	5	..........a	-327.66
	1094	219	1.40137E-001	-3.82343E-008	0.00000E+000	1.40000E-001	1.00529E-003	5	..........a	-327.66
	1095	219.2	1.30080E-001	-3.62375E-008	0.00000E+000	1.30000E-001	1.02319E-003	5	..........a	-327.66
	1096	219.4	1.20066E-001	-3.39154E-008	0.00000E+000	1.20000E-001	1.01829E-003	5	..........a	-327.66
	1097	219.6	1.10112E-001	-3.14148E-008	0.00000E+000	1.10000E-001	1.01339E-003	5	..........a	-327.66
	1098	219.8	1.00131E-001	-2.88516E-008	0.00000E+000	1.00000E-001	1.01649E-003	5	..........a	-327.66
	1099	220	9.01046E-002	-2.64021E-008	0.00000E+000	9.00000E-002	1.01509E-003	5	..........a	-327.66
	1100	220.2	8.00697E-002	-2.41904E-008	0.00000E+000	8.00000E-002	1.01269E-003	5	..........a	-327.66
	1101	220.4	7.00193E-002	-2.24241E-008	0.00000E+000	7.00000E-002	1.02959E-003	5	..........a	-327.66
	1102	220.6	6.01184E-002	-2.10835E-008	0.00000E+000	6.00000E-002	1.00079E-003	5	..........a	-327.66
	1103	220.8	5.00525E-002	-2.00907E-008	0.00000E+000	5.00000E-002	9.93892E-004	5	..........a	-327.66
	1104	221	4.00241E-002	-1.94379E-008	0.00000E+000	4.00000E-002	1.01059E-003	5	..........a	-327.66
	1105	221.2	3.00863E-002	-1.89978E-008	0.00000E+000	3.00000E-002	1.01689E-003	5	..........a	-327.66
	1106	221.4	2.01664E-002	-1.87386E-008	0.00000E+000	2.00000E-002	1.01189E-003	5	..........a	-327.66
	1107	221.6	1.01146E-002	-1.86973E-008	0.00000E+000	1.00000E-002	1.00249E-003	5	..........a	-327.66
	1108	221.8	5.52916E-005	-1.91482E-008	0.00000E+000	7.45058E-009	1.00529E-003	5	..........a	-327.66
	1109	222	-9.86471E-003	-1.92066E-008	0.00000E+000	-1.00000E-002	1.01079E-003	5	..........a	-327.66
	1110	222.2	-1.99030E-002	-1.96933E-008	0.00000E+000	-2.00000E-002	9.98592E-004	5	..........a	-327.66
	1111	222.4	-2.99244E-002	-1.96311E-008	0.00000E+000	-3.00000E-002	1.00819E-003	5	..........a	-327.66
	1112	222.6	-3.99053E-002	-1.97049E-008	0.00000E+000	-4.00000E-002	1.01529E-003	5	..........a	-327.66
	1113	222.8	-4.98930E-002	-2.04449E-008	0.00000E+000	-5.00000E-002	1.02479E-003	5	..........a	-327.66
	1114	223	-5.98979E-002	-2.06762E-008	0.00000E+000	-6.00000E-002	9.98492E-004	5	..........a	-327.66
	1115	223.2	-6.99165E-002	-2.09145E-008	0.00000E+000	-7.00000E-002	9.91692E-004	5	..........a	-327.66
	1116	223.4	-7.99220E-002	-2.16450E-008	0.00000E+000	-8.00000E-002	1.01579E-003	5	..........a	-327.66
	1117	223.6	-8.98950E-002	-2.23573E-008	0.00000E+000	-9.00000E-002	1.01049E-003	5	..........a	-327.66
	1118	223.8	-9.98953E-002	-2.33949E-008	0.00000E+000	-1.00000E-001	9.98392E-004	5	..........a	-327.66
	1119	224	-1.09941E-001	-2.43421E-008	0.00000E+000	-1.10000E-001	1.00519E-003	5	..........a	-327.66
	1120	224.2	-1.19906E-001	-2.46109E-008	0.00000E+000	-1.20000E-001	1.02399E-003	5	..........a	-327.66

File: 20240424_ZE_GM0016_HL03_E08_CV50.DTA
EXPLAIN
TAG	CV
TITLE	LABEL	Cyclic Voltammetry	Test &Identifier
DATE	LABEL	4/24/2024	Date
TIME	LABEL	18:29:05	Time
NOTES	NOTES	1	&Notes...

PSTAT	PSTAT	REF600P-43058	Potentiostat
VINIT	POTEN	0.00000E+000	T	Initial &E (V)
VLIMIT1	POTEN	-6.00000E-001	F	Scan Limit &1 (V)
VLIMIT2	POTEN	8.00000E-001	F	Scan Limit &2 (V)
VFINAL	POTEN	0.00000E+000	T	Final &E (V)
SCANRATE	QUANT	4.99999E+001	&Scan Rate (mV/s)
STEPSIZE	QUANT	1.00000E+001	St&ep Size (mV)
CYCLES	IQUANT	4	C&ycles (#)
IMODE	SELECTOR	0	I/E Range &Mode
IRANGE	QUANT	1.00000E-005	&Max Current (mA)
AREA	QUANT	1.00000E+000	Electrode &Area (cm^2)
ELECTRODETYPE	SELECTOR	0	Electrode Type
STRIPPING	TOGGLE	F	Used for Stripping
POLARITY	TOGGLE	F	Signal Polarity
CONDIT	TWOPARAM	F	1.50000E+001	0.00000E+000	Conditionin&g	Time(s)	E(V)
DELAY	TWOPARAM	T	1.00000E+001	0.00000E+000	Init. De&lay	Time(s)	Stab.(mV/s)
EQDELAY	QUANT	1.00000E+001	Equil. &Time (s)
IRCOMP	SELECTOR	0	IRCom&p
PFCOR	QUANT	5.00000E+001	PF Corr. (ohm)
SAMPLINGMODE	SELECTOR	1	Sampling &Mode
OCVCURVE	TABLE	39
	Pt	T	Vf	Vm	Ach	Over	Temp
	#	s	V vs. Ref.	V	V	bits	deg C
	0	0.258333	-8.93286E-002	-8.93286E-002	2.05459E-004	..........a	-327.66
	1	0.516667	-8.93348E-002	-8.96498E-002	2.07326E-004	..........a	-327.66
	2	0.775	-8.93726E-002	-8.99645E-002	2.06926E-004	..........a	-327.66
	3	1.03333	-8.94806E-002	-9.02772E-002	2.00259E-004	..........a	-327.66
	4	1.29167	-8.96761E-002	-9.05805E-002	2.11126E-004	..........a	-327.66
	5	1.55	-8.99403E-002	-9.08907E-002	2.14326E-004	..........a	-327.66
	6	1.80833	-9.02397E-002	-9.11738E-002	2.04392E-004	..........a	-327.66
	7	2.06667	-9.05482E-002	-9.14602E-002	2.05326E-004	..........a	-327.66
	8	2.325	-9.08522E-002	-9.17436E-002	1.97926E-004	..........a	-327.66
	9	2.58333	-9.11478E-002	-9.20193E-002	2.07592E-004	..........a	-327.66
	10	2.84167	-9.14359E-002	-9.23011E-002	2.08259E-004	..........a	-327.66
	11	3.1	-9.17189E-002	-9.25699E-002	2.00992E-004	..........a	-327.66
	12	3.35833	-9.19981E-002	-9.28310E-002	2.04192E-004	..........a	-327.66
	13	3.61667	-9.22733E-002	-9.30984E-002	2.06459E-004	..........a	-327.66
	14	3.875	-9.25443E-002	-9.33613E-002	2.04926E-004	..........a	-327.66
	15	4.13333	-9.28115E-002	-9.36133E-002	2.08659E-004	..........a	-327.66
	16	4.39167	-9.30753E-002	-9.38660E-002	1.94526E-004	..........a	-327.66
	17	4.65	-9.33354E-002	-9.41121E-002	2.06926E-004	..........a	-327.66
	18	4.90833	-9.35914E-002	-9.43606E-002	2.01859E-004	..........a	-327.66
	19	5.16667	-9.38435E-002	-9.46013E-002	2.06392E-004	..........a	-327.66
	20	5.425	-9.40923E-002	-9.48442E-002	2.07592E-004	..........a	-327.66
	21	5.68333	-9.43382E-002	-9.50754E-002	2.14792E-004	..........a	-327.66
	22	5.94167	-9.45811E-002	-9.53088E-002	2.16059E-004	..........a	-327.66
	23	6.2	-9.48203E-002	-9.55364E-002	2.07259E-004	..........a	-327.66
	24	6.45833	-9.50560E-002	-9.57664E-002	2.08726E-004	..........a	-327.66
	25	6.71667	-9.52885E-002	-9.59934E-002	2.07726E-004	..........a	-327.66
	26	6.975	-9.55186E-002	-9.62091E-002	1.99926E-004	..........a	-327.66
	27	7.23333	-9.57462E-002	-9.64311E-002	2.01259E-004	..........a	-327.66
	28	7.49167	-9.59710E-002	-9.66518E-002	2.08392E-004	..........a	-327.66
	29	7.75	-9.61933E-002	-9.68710E-002	2.07992E-004	..........a	-327.66
	30	8.00833	-9.64139E-002	-9.70816E-002	2.05459E-004	..........a	-327.66
	31	8.26667	-9.66330E-002	-9.72937E-002	2.05992E-004	..........a	-327.66
	32	8.525	-9.68499E-002	-9.75051E-002	2.04792E-004	..........a	-327.66
	33	8.78333	-9.70643E-002	-9.77112E-002	2.11926E-004	..........a	-327.66
	34	9.04167	-9.72765E-002	-9.79220E-002	1.99792E-004	..........a	-327.66
	35	9.3	-9.74866E-002	-9.81121E-002	2.14059E-004	..........a	-327.66
	36	9.5583	-9.76942E-002	-9.83206E-002	2.08792E-004	..........a	-327.66
	37	9.8167	-9.78989E-002	-9.85163E-002	1.91592E-004	..........a	-327.66
	38	10.075	-9.81009E-002	-9.87056E-002	1.98592E-004	..........a	-327.66
EOC	QUANT	-0.0981009	Open Circuit (V)
PSTATMODEL	IQUANT	7	Pstat Model
PSTATSECTION	LABEL	REF600P-43058	Pstat Section
PSTATSERIALNO	LABEL	43058	Pstat Serial Number
CTRLMODE	IQUANT	1	Control Mode
ELECTROMETER	IQUANT	0	RE=0 or CS=1
IESTAB	IQUANT	2	I/E Stability
CASPEED	IQUANT	4	Control Amp Speed
CONVENTION	IQUANT	1	Current Convention
ICHRANGE	IQUANT	2	Ich Range
ICHRANGEMODE	TOGGLE	F	Ich Auto Range
ICHOFFSETENABLE	TOGGLE	F	Ich Offset Enable
ICHOFFSET	QUANT	0	Ich Offset (V)
ICHFILTER	IQUANT	2	Ich Filter
VCHRANGE	IQUANT	2	Vch Range
VCHRANGEMODE	TOGGLE	F	Vch Auto Range
VCHOFFSETENABLE	TOGGLE	F	Vch Offset Enable
VCHOFFSET	QUANT	0	Vch Offset (V)
VCHFILTER	IQUANT	2	Vch Filter
ACHRANGE	IQUANT	2	Ach Range
ACHOFFSETENABLE	TOGGLE	F	Ach Offset Enable
ACHOFFSET	QUANT	0	Ach Offset (V)
ACHFILTER	IQUANT	1	Ach Filter
IERANGELOWERLIMIT	IQUANT	1	I/E Range Lower Limit
IERANGEMODE	TOGGLE	T	I/E AutoRange
IERANGE	IQUANT	4	I/E Range
POSFEEDENABLE	TOGGLE	F	Positive Feedback IR Comp
POSFEEDRESISTANCE	QUANT	0	Positive Feedback Resistance (ohm)
ACHSELECT	IQUANT	4	Ach Select
SENSECABLEID	IQUANT	7	Sense Cable ID
PWRCABLEID	IQUANT	7	Power Cable ID
DCCALDATE	LABEL	3/22/2024	DC Calibration Date
ACCALDATE	LABEL	3/22/2024	AC Calibration Date
THERMOSELECT	IQUANT	1	Thermo Select
FRAMEWORKVERSION	LABEL	7.8.4	Framework Version
INSTRUMENTVERSION	LABEL	4.42	Instrument Version
CURVE1	TABLE
	Pt	T	Vf	Im	Vu	Sig	Ach	IERange	Over	Temp
	#	s	V vs. Ref.	A	V	V	V	#	bits	deg C
	0	0.2	-9.80187E-002	9.83003E-010	0.00000E+000	-9.81000E-002	9.70392E-004	5	..........a	-327.66
	2	0.6	-1.18056E-001	-2.53556E-009	0.00000E+000	-1.18100E-001	9.59492E-004	5	..........a	-327.66
	4	1	-1.37964E-001	-5.06699E-009	0.00000E+000	-1.38100E-001	9.55092E-004	5	..........a	-327.66
	6	1.4	-1.58090E-001	-7.46414E-009	0.00000E+000	-1.58100E-001	9.71292E-004	5	..........a	-327.66
	8	1.8	-1.77979E-001	-9.78753E-009	0.00000E+000	-1.78100E-001	9.66492E-004	5	..........a	-327.66
	10	2.2	-1.98044E-001	-1.20222E-008	0.00000E+000	-1.98100E-001	9.71292E-004	5	..........a	-327.66
	12	2.6	-2.17995E-001	-1.41569E-008	0.00000E+000	-2.18100E-001	9.58692E-004	5	..........a	-327.66
	14	3	-2.38002E-001	-1.63081E-008	0.00000E+000	-2.38100E-001	9.67892E-004	5	..........a	-327.66
	16	3.4	-2.57946E-001	-1.84708E-008	0.00000E+000	-2.58100E-001	9.54092E-004	5	..........a	-327.66
	18	3.8	-2.78021E-001	-2.07393E-008	0.00000E+000	-2.78100E-001	9.55892E-004	5	..........a	-327.66
	20	4.2	-2.97963E-001	-2.31009E-008	0.00000E+000	-2.98100E-001	9.57492E-004	5	..........a	-327.66
	22	4.6	-3.17936E-001	-2.55775E-008	0.00000E+000	-3.18100E-001	9.59592E-004	5	..........a	-327.66
	24	5	-3.37981E-001	-2.81702E-008	0.00000E+000	-3.38100E-001	9.54292E-004	5	..........a	-327.66
	26	5.4	-3.58027E-001	-3.08371E-008	0.00000E+000	-3.58100E-001	9.67592E-004	5	..........a	-327.66
	28	5.8	-3.77969E-001	-3.35310E-008	0.00000E+000	-3.78100E-001	9.62492E-004	5	..........a	-327.66
	30	6.2	-3.97977E-001	-3.60935E-008	0.00000E+000	-3.98100E-001	9.52592E-004	5	..........a	-327.66
	32	6.6	-4.17984E-001	-3.85727E-008	0.00000E+000	-4.18100E-001	9.63192E-004	5	..........a	-327.66
	34	7	-4.37964E-001	-4.09034E-008	0.00000E+000	-4.38100E-001	9.55392E-004	5	..........a	-327.66
	36	7.4	-4.57962E-001	-4.30870E-008	0.00000E+000	-4.58100E-001	9.49592E-004	5	..........a	-327.66
	38	7.8	-4.77920E-001	-4.52120E-008	0.00000E+000	-4.78100E-001	9.64792E-004	5	..........a	-327.66
[...]
	1085	217.2	2.50034E-001	-3.52240E-008	0.00000E+000	2.50000E-001	9.59492E-004	5	..........a	-327.66
	1086	217.4	2.40061E-001	-3.86125E-008	0.00000E+000	2.40000E-001	9.69192E-004	5	..........a	-327.66
	1087	217.6	2.30026E-001	-4.21633E-008	0.00000E+000	2.30000E-001	9.80792E-004	5	..........a	-327.66
	1088	217.8	2.20072E-001	-4.55500E-008	0.00000E+000	2.20000E-001	9.49392E-004	5	..........a	-327.66
	1089	218	2.10051E-001	-4.87990E-008	0.00000E+000	2.10000E-001	9.76592E-004	5	..........a	-327.66
	1090	218.2	2.00096E-001	-5.18354E-008	0.00000E+000	2.00000E-001	9.85092E-004	5	..........a	-327.66
	1091	218.4	1.90120E-001	-5.43344E-008	0.00000E+000	1.90000E-001	9.74692E-004	5	..........a	-327.66
	1092	218.6	1.80140E-001	-5.62382E-008	0.00000E+000	1.80000E-001	9.69992E-004	5	..........a	-327.66
	1093	218.8	1.70087E-001	-5.73866E-008	0.00000E+000	1.70000E-001	9.59792E-004	5	..........a	-327.66
	1094	219	1.60066E-001	-5.76437E-008	0.00000E+000	1.60000E-001	9.72192E-004	5	..........a	-327.66
	1095	219.2	1.50098E-001	-5.70085E-008	0.00000E+000	1.50000E-001	9.61292E-004	5	..........a	-327.66
	1096	219.4	1.40143E-001	-5.55298E-008	0.00000E+000	1.40000E-001	9.47292E-004	5	..........a	-327.66
	1097	219.6	1.30080E-001	-5.32772E-008	0.00000E+000	1.30000E-001	9.56092E-004	5	..........a	-327.66
	1098	219.8	1.20099E-001	-5.03897E-008	0.00000E+000	1.20000E-001	9.70692E-004	5	..........a	-327.66
	1099	220	1.10114E-001	-4.70543E-008	0.00000E+000	1.10000E-001	9.60492E-004	5	..........a	-327.66
	1100	220.2	1.00129E-001	-4.34733E-008	0.00000E+000	1.00000E-001	9.71892E-004	5	..........a	-327.66
	1101	220.4	9.01181E-002	-3.98449E-008	0.00000E+000	9.00000E-002	9.63692E-004	5	..........a	-327.66
	1102	220.6	8.00496E-002	-3.65139E-008	0.00000E+000	8.00000E-002	9.80592E-004	5	..........a	-327.66
	1103	220.8	7.00333E-002	-3.36449E-008	0.00000E+000	7.00000E-002	9.78892E-004	5	..........a	-327.66
	1104	221	6.01109E-002	-3.13403E-008	0.00000E+000	6.00000E-002	9.61092E-004	5	..........a	-327.66
	1105	221.2	5.00925E-002	-2.95759E-008	0.00000E+000	5.00000E-002	9.67792E-004	5	..........a	-327.66
	1106	221.4	4.00192E-002	-2.83026E-008	0.00000E+000	4.00000E-002	9.71192E-004	5	..........a	-327.66
	1107	221.6	3.00465E-002	-2.74002E-008	0.00000E+000	3.00000E-002	9.61692E-004	5	..........a	-327.66
	1108	221.8	2.01545E-002	-2.67764E-008	0.00000E+000	2.00000E-002	9.57692E-004	5	..........a	-327.66
	1109	222	1.01081E-002	-2.65766E-008	0.00000E+000	1.00000E-002	9.71992E-004	5	..........a	-327.66
	1110	222.2	3.61916E-005	-2.69194E-008	0.00000E+000	7.45058E-009	9.58192E-004	5	..........a	-327.66
	1111	222.4	-9.88116E-003	-2.66639E-008	0.00000E+000	-1.00000E-002	9.54692E-004	5	..........a	-327.66
	1112	222.6	-1.99124E-002	-2.65634E-008	0.00000E+000	-2.00000E-002	9.50892E-004	5	..........a	-327.66
	1113	222.8	-2.99403E-002	-2.68069E-008	0.00000E+000	-3.00000E-002	9.79492E-004	5	..........a	-327.66
	1114	223	-3.99140E-002	-2.68780E-008	0.00000E+000	-4.00000E-002	9.62292E-004	5	..........a	-327.66
	1115	223.2	-4.99256E-002	-2.73035E-008	0.00000E+000	-5.00000E-002	9.61092E-004	5	..........a	-327.66
	1116	223.4	-5.98834E-002	-2.80347E-008	0.00000E+000	-6.00000E-002	9.67492E-004	5	..........a	-327.66
	1117	223.6	-6.99314E-002	-2.81846E-008	0.00000E+000	-7.00000E-002	9.81892E-004	5	..........a	-327.66
	1118	223.8	-7.99303E-002	-2.90342E-008	0.00000E+000	-8.00000E-002	9.79592E-004	5	..........a	-327.66
	1119	224	-8.99012E-002	-2.94577E-008	0.00000E+000	-9.00000E-002	9.62692E-004	5	..........a	-327.66
	1120	224.2	-9.98910E-002	-3.01045E-008	0.00000E+000	-1.00000E-001	9.77092E-004	5	..........a	-327.66