Folder: GamryParser/example_project/raw_outputs (part 16)

File: 20240509_ZA_GM0016_HL03_E07_CV50.DTA
EXPLAIN
TAG	CV
TITLE	LABEL	Cyclic Voltammetry	Test &Identifier
DATE	LABEL	5/9/2024	Date
TIME	LABEL	13:52:05	Time
NOTES	NOTES	1	&Notes...

PSTAT	PSTAT	REF600P-43058	Potentiostat
VINIT	POTEN	0.00000E+000	T	Initial &E (V)
VLIMIT1	POTEN	8.00000E-001	F	Scan Limit &1 (V)
VLIMIT2	POTEN	-6.00000E-001	F	Scan Limit &2 (V)
VFINAL	POTEN	0.00000E+000	T	Final &E (V)
SCANRATE	QUANT	4.99999E+001	&Scan Rate (mV/s)
STEPSIZE	QUANT	1.00000E+001	St&ep Size (mV)
CYCLES	IQUANT	4	C&ycles (#)
IMODE	SELECTOR	0	I/E Range &Mode
IRANGE	QUANT	1.00000E-005	&Max Current (mA)
AREA	QUANT	1.00000E+000	Electrode &Area (cm^2)
ELECTRODETYPE	SELECTOR	0	Electrode Type
STRIPPING	TOGGLE	F	Used for Stripping
POLARITY	TOGGLE	F	Signal Polarity
CONDIT	TWOPARAM	F	1.50000E+001	0.00000E+000	Conditionin&g	Time(s)	E(V)
DELAY	TWOPARAM	T	1.00000E+001	0.00000E+000	Init. De&lay	Time(s)	Stab.(mV/s)
EQDELAY	QUANT	1.00000E+001	Equil. &Time (s)
IRCOMP	SELECTOR	0	IRCom&p
PFCOR	QUANT	5.00000E+001	PF Corr. (ohm)
SAMPLINGMODE	SELECTOR	1	Sampling &Mode
OCVCURVE	TABLE	39
	Pt	T	Vf	Vm	Ach	Over	Temp
	#	s	V vs. Ref.	V	V	bits	deg C
	0	0.258333	-1.38075E-001	-1.38075E-001	1.92992E-004	..........a	-327.66
	1	0.516667	-1.38076E-001	-1.38133E-001	1.94859E-004	..........a	-327.66
	2	0.775	-1.38083E-001	-1.38201E-001	1.97326E-004	..........a	-327.66
	3	1.03333	-1.38104E-001	-1.38265E-001	2.07392E-004	..........a	-327.66
	4	1.29167	-1.38143E-001	-1.38343E-001	2.06192E-004	..........a	-327.66
	5	1.55	-1.38198E-001	-1.38408E-001	2.02126E-004	..........a	-327.66
	6	1.80833	-1.38263E-001	-1.38477E-001	1.96326E-004	..........a	-327.66
	7	2.06667	-1.38332E-001	-1.38546E-001	1.94592E-004	..........a	-327.66
	8	2.325	-1.38402E-001	-1.38607E-001	1.98726E-004	..........a	-327.66
	9	2.58333	-1.38471E-001	-1.38680E-001	2.01126E-004	..........a	-327.66
	10	2.84167	-1.38539E-001	-1.38744E-001	2.09326E-004	..........a	-327.66
	11	3.1	-1.38606E-001	-1.38813E-001	2.04859E-004	..........a	-327.66
	12	3.35833	-1.38673E-001	-1.38882E-001	1.95992E-004	..........a	-327.66
	13	3.61667	-1.38740E-001	-1.38936E-001	1.89659E-004	..........a	-327.66
	14	3.875	-1.38806E-001	-1.38998E-001	2.02126E-004	..........a	-327.66
	15	4.13333	-1.38871E-001	-1.39062E-001	2.11859E-004	..........a	-327.66
	16	4.39167	-1.38934E-001	-1.39132E-001	2.01126E-004	..........a	-327.66
	17	4.65	-1.38996E-001	-1.39200E-001	1.99926E-004	..........a	-327.66
	18	4.90833	-1.39060E-001	-1.39247E-001	1.95259E-004	..........a	-327.66
	19	5.16667	-1.39124E-001	-1.39307E-001	2.12659E-004	..........a	-327.66
	20	5.425	-1.39186E-001	-1.39373E-001	2.02859E-004	..........a	-327.66
	21	5.68333	-1.39247E-001	-1.39451E-001	1.95059E-004	..........a	-327.66
	22	5.94167	-1.39308E-001	-1.39509E-001	2.03059E-004	..........a	-327.66
	23	6.2	-1.39372E-001	-1.39557E-001	2.06926E-004	..........a	-327.66
	24	6.45833	-1.39437E-001	-1.39628E-001	2.07259E-004	..........a	-327.66
	25	6.71667	-1.39499E-001	-1.39688E-001	2.03659E-004	..........a	-327.66
	26	6.975	-1.39560E-001	-1.39754E-001	1.95059E-004	..........a	-327.66
	27	7.23333	-1.39622E-001	-1.39810E-001	1.90192E-004	..........a	-327.66
	28	7.49167	-1.39684E-001	-1.39866E-001	2.07992E-004	..........a	-327.66
	29	7.75	-1.39745E-001	-1.39923E-001	1.99926E-004	..........a	-327.66
	30	8.00833	-1.39804E-001	-1.39974E-001	1.97126E-004	..........a	-327.66
	31	8.26667	-1.39861E-001	-1.40025E-001	2.09792E-004	..........a	-327.66
	32	8.525	-1.39916E-001	-1.40070E-001	1.99659E-004	..........a	-327.66
	33	8.78333	-1.39968E-001	-1.40116E-001	2.00726E-004	..........a	-327.66
	34	9.04167	-1.40018E-001	-1.40168E-001	2.01126E-004	..........a	-327.66
	35	9.3	-1.40067E-001	-1.40215E-001	1.93792E-004	..........a	-327.66
	36	9.5583	-1.40115E-001	-1.40269E-001	2.09326E-004	..........a	-327.66
	37	9.8167	-1.40164E-001	-1.40328E-001	2.00459E-004	..........a	-327.66
	38	10.075	-1.40215E-001	-1.40384E-001	1.99592E-004	..........a	-327.66
EOC	QUANT	-0.1402146	Open Circuit (V)
PSTATMODEL	IQUANT	7	Pstat Model
PSTATSECTION	LABEL	REF600P-43058	Pstat Section
PSTATSERIALNO	LABEL	43058	Pstat Serial Number
CTRLMODE	IQUANT	1	Control Mode
ELECTROMETER	IQUANT	0	RE=0 or CS=1
IESTAB	IQUANT	2	I/E Stability
CASPEED	IQUANT	4	Control Amp Speed
CONVENTION	IQUANT	1	Current Convention
ICHRANGE	IQUANT	2	Ich Range
ICHRANGEMODE	TOGGLE	F	Ich Auto Range
ICHOFFSETENABLE	TOGGLE	F	Ich Offset Enable
ICHOFFSET	QUANT	0	Ich Offset (V)
ICHFILTER	IQUANT	2	Ich Filter
VCHRANGE	IQUANT	2	Vch Range
VCHRANGEMODE	TOGGLE	F	Vch Auto Range
VCHOFFSETENABLE	TOGGLE	F	Vch Offset Enable
VCHOFFSET	QUANT	0	Vch Offset (V)
VCHFILTER	IQUANT	2	Vch Filter
ACHRANGE	IQUANT	2	Ach Range
ACHOFFSETENABLE	TOGGLE	F	Ach Offset Enable
ACHOFFSET	QUANT	0	Ach Offset (V)
ACHFILTER	IQUANT	1	Ach Filter
IERANGELOWERLIMIT	IQUANT	1	I/E Range Lower Limit
IERANGEMODE	TOGGLE	T	I/E AutoRange
IERANGE	IQUANT	4	I/E Range
POSFEEDENABLE	TOGGLE	F	Positive Feedback IR Comp
POSFEEDRESISTANCE	QUANT	0	Positive Feedback Resistance (ohm)
ACHSELECT	IQUANT	4	Ach Select
SENSECABLEID	IQUANT	7	Sense Cable ID
PWRCABLEID	IQUANT	7	Power Cable ID
DCCALDATE	LABEL	3/22/2024	DC Calibration Date
ACCALDATE	LABEL	3/22/2024	AC Calibration Date
THERMOSELECT	IQUANT	1	Thermo Select
FRAMEWORKVERSION	LABEL	7.8.4	Framework Version
INSTRUMENTVERSION	LABEL	4.42	Instrument Version
CURVE1	TABLE
	Pt	T	Vf	Im	Vu	Sig	Ach	IERange	Over	Temp
	#	s	V vs. Ref.	A	V	V	V	#	bits	deg C
	0	0.2	-1.40150E-001	8.68979E-010	0.00000E+000	-1.40200E-001	9.61592E-004	5	..........a	-327.66
	3	0.8	-1.10220E-001	1.02377E-008	0.00000E+000	-1.10200E-001	9.56192E-004	5	..........a	-327.66
	6	1.4	-8.01496E-002	1.52984E-008	0.00000E+000	-8.02000E-002	9.58392E-004	5	..........a	-327.66
	9	2	-5.00935E-002	1.93930E-008	0.00000E+000	-5.02000E-002	9.55992E-004	5	..........a	-327.66
	12	2.6	-2.01783E-002	2.32257E-008	0.00000E+000	-2.02000E-002	9.59792E-004	5	..........a	-327.66
	15	3.2	9.87524E-003	2.72423E-008	0.00000E+000	9.80000E-003	9.46192E-004	5	..........a	-327.66
	18	3.8	3.98534E-002	3.16242E-008	0.00000E+000	3.98000E-002	9.67592E-004	5	..........a	-327.66
	21	4.4	6.99455E-002	3.66548E-008	0.00000E+000	6.98000E-002	9.64392E-004	5	..........a	-327.66
	24	5	9.98470E-002	4.27486E-008	0.00000E+000	9.98000E-002	9.54292E-004	5	..........a	-327.66
	27	5.6	1.29822E-001	5.01759E-008	0.00000E+000	1.29800E-001	9.50592E-004	5	..........a	-327.66
	30	6.2	1.59818E-001	5.90301E-008	0.00000E+000	1.59800E-001	9.52792E-004	5	..........a	-327.66
	33	6.8	1.89879E-001	6.91671E-008	0.00000E+000	1.89800E-001	9.49592E-004	5	..........a	-327.66
	36	7.4	2.19793E-001	8.03445E-008	0.00000E+000	2.19800E-001	9.46992E-004	5	..........a	-327.66
	39	8	2.49749E-001	9.20347E-008	0.00000E+000	2.49800E-001	9.51592E-004	5	..........a	-327.66
	42	8.6	2.79759E-001	1.03797E-007	0.00000E+000	2.79800E-001	9.62892E-004	5	..........a	-327.66
	45	9.2	3.09872E-001	1.15968E-007	0.00000E+000	3.09800E-001	9.65792E-004	5	..........a	-327.66
	48	9.8	3.39782E-001	1.27978E-007	0.00000E+000	3.39800E-001	9.49192E-004	5	..........a	-327.66
	51	10.4	3.69769E-001	1.39890E-007	0.00000E+000	3.69800E-001	9.52792E-004	5	..........a	-327.66
	54	11	3.99739E-001	1.52195E-007	0.00000E+000	3.99800E-001	9.56892E-004	5	..........a	-327.66
	57	11.6	4.29816E-001	1.64355E-007	0.00000E+000	4.29800E-001	9.52992E-004	5	..........a	-327.66
	60	12.2	4.59675E-001	1.76666E-007	0.00000E+000	4.59800E-001	9.64692E-004	5	..........a	-327.66
[...]
	1085	217.2	-4.89842E-001	-5.02681E-008	0.00000E+000	-4.90000E-001	9.55292E-004	5	..........a	-327.66
	1086	217.4	-4.79824E-001	-4.64021E-008	0.00000E+000	-4.80000E-001	9.50092E-004	5	..........a	-327.66
	1087	217.6	-4.69846E-001	-4.28288E-008	0.00000E+000	-4.70000E-001	9.57892E-004	5	..........a	-327.66
	1088	217.8	-4.59805E-001	-3.92981E-008	0.00000E+000	-4.60000E-001	9.42092E-004	5	..........a	-327.66
	1089	218	-4.49844E-001	-3.61018E-008	0.00000E+000	-4.50000E-001	9.54292E-004	5	..........a	-327.66
	1090	218.2	-4.39897E-001	-3.30329E-008	0.00000E+000	-4.40000E-001	9.51092E-004	5	..........a	-327.66
	1091	218.4	-4.29850E-001	-3.00555E-008	0.00000E+000	-4.30000E-001	9.54192E-004	5	..........a	-327.66
	1092	218.6	-4.19805E-001	-2.72662E-008	0.00000E+000	-4.20000E-001	9.50092E-004	5	..........a	-327.66
	1093	218.8	-4.09851E-001	-2.45938E-008	0.00000E+000	-4.10000E-001	9.55092E-004	5	..........a	-327.66
	1094	219	-3.99867E-001	-2.20254E-008	0.00000E+000	-4.00000E-001	9.51592E-004	5	..........a	-327.66
	1095	219.2	-3.89895E-001	-1.95295E-008	0.00000E+000	-3.90000E-001	9.44192E-004	5	..........a	-327.66
	1096	219.4	-3.79842E-001	-1.71197E-008	0.00000E+000	-3.80000E-001	9.38992E-004	5	..........a	-327.66
	1097	219.6	-3.69847E-001	-1.48238E-008	0.00000E+000	-3.70000E-001	9.45892E-004	5	..........a	-327.66
	1098	219.8	-3.59932E-001	-1.26367E-008	0.00000E+000	-3.60000E-001	9.55592E-004	5	..........a	-327.66
	1099	220	-3.49870E-001	-1.04847E-008	0.00000E+000	-3.50000E-001	9.57392E-004	5	..........a	-327.66
	1100	220.2	-3.39842E-001	-8.38355E-009	0.00000E+000	-3.40000E-001	9.45692E-004	5	..........a	-327.66
	1101	220.4	-3.29883E-001	-6.33644E-009	0.00000E+000	-3.30000E-001	9.54592E-004	5	..........a	-327.66
	1102	220.6	-3.19863E-001	-4.41008E-009	0.00000E+000	-3.20000E-001	9.50692E-004	5	..........a	-327.66
	1103	220.8	-3.09898E-001	-2.51454E-009	0.00000E+000	-3.10000E-001	9.45792E-004	5	..........a	-327.66
	1104	221	-2.99867E-001	-7.00800E-010	0.00000E+000	-3.00000E-001	9.51592E-004	5	..........a	-327.66
	1105	221.2	-2.89917E-001	1.18270E-009	0.00000E+000	-2.90000E-001	9.63792E-004	5	..........a	-327.66
	1106	221.4	-2.79953E-001	2.98268E-009	0.00000E+000	-2.80000E-001	9.62192E-004	5	..........a	-327.66
	1107	221.6	-2.69869E-001	4.75296E-009	0.00000E+000	-2.70000E-001	9.47292E-004	5	..........a	-327.66
	1108	221.8	-2.59841E-001	6.48977E-009	0.00000E+000	-2.60000E-001	9.58192E-004	5	..........a	-327.66
	1109	222	-2.49914E-001	8.15396E-009	0.00000E+000	-2.50000E-001	9.48292E-004	5	..........a	-327.66
	1110	222.2	-2.39910E-001	9.83573E-009	0.00000E+000	-2.40000E-001	9.56492E-004	5	..........a	-327.66
	1111	222.4	-2.29938E-001	1.14439E-008	0.00000E+000	-2.30000E-001	9.41792E-004	5	..........a	-327.66
	1112	222.6	-2.19892E-001	1.30293E-008	0.00000E+000	-2.20000E-001	9.35392E-004	5	..........a	-327.66
	1113	222.8	-2.09914E-001	1.45884E-008	0.00000E+000	-2.10000E-001	9.62492E-004	5	..........a	-327.66
	1114	223	-1.99951E-001	1.61181E-008	0.00000E+000	-2.00000E-001	9.55292E-004	5	..........a	-327.66
	1115	223.2	-1.90151E-001	1.76167E-008	0.00000E+000	-1.90000E-001	9.47292E-004	5	..........a	-327.66
	1116	223.4	-1.79928E-001	1.90836E-008	0.00000E+000	-1.80000E-001	9.43292E-004	5	..........a	-327.66
	1117	223.6	-1.69903E-001	2.04930E-008	0.00000E+000	-1.70000E-001	9.54292E-004	5	..........a	-327.66
	1118	223.8	-1.59965E-001	2.19197E-008	0.00000E+000	-1.60000E-001	9.54992E-004	5	..........a	-327.66
	1119	224	-1.50019E-001	2.33013E-008	0.00000E+000	-1.50000E-001	9.52492E-004	5	..........a	-327.66
	1120	224.2	-1.39974E-001	2.46430E-008	0.00000E+000	-1.40000E-001	9.47792E-004	5	..........a	-327.66

File: 20240509_ZZE_GM0016_HL03_E08_CV50.DTA
EXPLAIN
TAG	CV
TITLE	LABEL	Cyclic Voltammetry	Test &Identifier
DATE	LABEL	5/9/2024	Date
TIME	LABEL	14:04:35	Time
NOTES	NOTES	1	&Notes...

PSTAT	PSTAT	REF600P-43058	Potentiostat
VINIT	POTEN	0.00000E+000	T	Initial &E (V)
VLIMIT1	POTEN	8.00000E-001	F	Scan Limit &1 (V)
VLIMIT2	POTEN	-6.00000E-001	F	Scan Limit &2 (V)
VFINAL	POTEN	0.00000E+000	T	Final &E (V)
SCANRATE	QUANT	4.99999E+001	&Scan Rate (mV/s)
STEPSIZE	QUANT	1.00000E+001	St&ep Size (mV)
CYCLES	IQUANT	4	C&ycles (#)
IMODE	SELECTOR	0	I/E Range &Mode
IRANGE	QUANT	1.00000E-005	&Max Current (mA)
AREA	QUANT	1.00000E+000	Electrode &Area (cm^2)
ELECTRODETYPE	SELECTOR	0	Electrode Type
STRIPPING	TOGGLE	F	Used for Stripping
POLARITY	TOGGLE	F	Signal Polarity
CONDIT	TWOPARAM	F	1.50000E+001	0.00000E+000	Conditionin&g	Time(s)	E(V)
DELAY	TWOPARAM	T	1.00000E+001	0.00000E+000	Init. De&lay	Time(s)	Stab.(mV/s)
EQDELAY	QUANT	1.00000E+001	Equil. &Time (s)
IRCOMP	SELECTOR	0	IRCom&p
PFCOR	QUANT	5.00000E+001	PF Corr. (ohm)
SAMPLINGMODE	SELECTOR	1	Sampling &Mode
OCVCURVE	TABLE	39
	Pt	T	Vf	Vm	Ach	Over	Temp
	#	s	V vs. Ref.	V	V	bits	deg C
	0	0.258333	-2.08004E-001	-2.08004E-001	2.10792E-004	..........a	-327.66
	1	0.516667	-2.08007E-001	-2.08174E-001	2.04592E-004	..........a	-327.66
	2	0.775	-2.08027E-001	-2.08343E-001	2.16592E-004	..........a	-327.66
	3	1.03333	-2.08084E-001	-2.08508E-001	2.09726E-004	..........a	-327.66
	4	1.29167	-2.08189E-001	-2.08686E-001	2.08992E-004	..........a	-327.66
	5	1.55	-2.08330E-001	-2.08811E-001	2.08859E-004	..........a	-327.66
	6	1.80833	-2.08489E-001	-2.08986E-001	2.12592E-004	..........a	-327.66
	7	2.06667	-2.08652E-001	-2.09167E-001	2.02059E-004	..........a	-327.66
	8	2.325	-2.08815E-001	-2.09343E-001	1.97259E-004	..........a	-327.66
	9	2.58333	-2.08982E-001	-2.09522E-001	2.04259E-004	..........a	-327.66
	10	2.84167	-2.09154E-001	-2.09690E-001	2.04659E-004	..........a	-327.66
	11	3.1	-2.09328E-001	-2.09863E-001	2.09326E-004	..........a	-327.66
	12	3.35833	-2.09504E-001	-2.10037E-001	2.09659E-004	..........a	-327.66
	13	3.61667	-2.09677E-001	-2.10196E-001	2.08992E-004	..........a	-327.66
	14	3.875	-2.09849E-001	-2.10360E-001	2.06059E-004	..........a	-327.66
	15	4.13333	-2.10018E-001	-2.10527E-001	2.06592E-004	..........a	-327.66
	16	4.39167	-2.10184E-001	-2.10695E-001	1.98726E-004	..........a	-327.66
	17	4.65	-2.10349E-001	-2.10858E-001	2.07459E-004	..........a	-327.66
	18	4.90833	-2.10515E-001	-2.11021E-001	2.10592E-004	..........a	-327.66
	19	5.16667	-2.10680E-001	-2.11190E-001	2.04259E-004	..........a	-327.66
	20	5.425	-2.10845E-001	-2.11337E-001	1.93392E-004	..........a	-327.66
	21	5.68333	-2.11008E-001	-2.11501E-001	1.97792E-004	..........a	-327.66
	22	5.94167	-2.11170E-001	-2.11659E-001	1.97792E-004	..........a	-327.66
	23	6.2	-2.11329E-001	-2.11819E-001	1.96259E-004	..........a	-327.66
	24	6.45833	-2.11488E-001	-2.11975E-001	2.02726E-004	..........a	-327.66
	25	6.71667	-2.11646E-001	-2.12093E-001	2.04326E-004	..........a	-327.66
	26	6.975	-2.11800E-001	-2.12237E-001	1.99859E-004	..........a	-327.66
	27	7.23333	-2.11948E-001	-2.12402E-001	1.96392E-004	..........a	-327.66
	28	7.49167	-2.12092E-001	-2.12569E-001	2.04126E-004	..........a	-327.66
	29	7.75	-2.12240E-001	-2.12729E-001	2.11592E-004	..........a	-327.66
	30	8.00833	-2.12394E-001	-2.12884E-001	2.06926E-004	..........a	-327.66
	31	8.26667	-2.12553E-001	-2.13040E-001	2.06459E-004	..........a	-327.66
	32	8.525	-2.12712E-001	-2.13187E-001	2.03392E-004	..........a	-327.66
	33	8.78333	-2.12869E-001	-2.13333E-001	2.11726E-004	..........a	-327.66
	34	9.04167	-2.13023E-001	-2.13464E-001	2.12192E-004	..........a	-327.66
	35	9.3	-2.13172E-001	-2.13618E-001	2.16992E-004	..........a	-327.66
	36	9.5583	-2.13317E-001	-2.13772E-001	2.07259E-004	..........a	-327.66
	37	9.8167	-2.13462E-001	-2.13916E-001	2.05259E-004	..........a	-327.66
	38	10.075	-2.13609E-001	-2.14059E-001	1.98926E-004	..........a	-327.66
EOC	QUANT	-0.2136087	Open Circuit (V)
PSTATMODEL	IQUANT	7	Pstat Model
PSTATSECTION	LABEL	REF600P-43058	Pstat Section
PSTATSERIALNO	LABEL	43058	Pstat Serial Number
CTRLMODE	IQUANT	1	Control Mode
ELECTROMETER	IQUANT	0	RE=0 or CS=1
IESTAB	IQUANT	2	I/E Stability
CASPEED	IQUANT	4	Control Amp Speed
CONVENTION	IQUANT	1	Current Convention
ICHRANGE	IQUANT	2	Ich Range
ICHRANGEMODE	TOGGLE	F	Ich Auto Range
ICHOFFSETENABLE	TOGGLE	F	Ich Offset Enable
ICHOFFSET	QUANT	0	Ich Offset (V)
ICHFILTER	IQUANT	2	Ich Filter
VCHRANGE	IQUANT	2	Vch Range
VCHRANGEMODE	TOGGLE	F	Vch Auto Range
VCHOFFSETENABLE	TOGGLE	F	Vch Offset Enable
VCHOFFSET	QUANT	0	Vch Offset (V)
VCHFILTER	IQUANT	2	Vch Filter
ACHRANGE	IQUANT	2	Ach Range
ACHOFFSETENABLE	TOGGLE	F	Ach Offset Enable
ACHOFFSET	QUANT	0	Ach Offset (V)
ACHFILTER	IQUANT	1	Ach Filter
IERANGELOWERLIMIT	IQUANT	1	I/E Range Lower Limit
IERANGEMODE	TOGGLE	T	I/E AutoRange
IERANGE	IQUANT	4	I/E Range
POSFEEDENABLE	TOGGLE	F	Positive Feedback IR Comp
POSFEEDRESISTANCE	QUANT	0	Positive Feedback Resistance (ohm)
ACHSELECT	IQUANT	4	Ach Select
SENSECABLEID	IQUANT	7	Sense Cable ID
PWRCABLEID	IQUANT	7	Power Cable ID
DCCALDATE	LABEL	3/22/2024	DC Calibration Date
ACCALDATE	LABEL	3/22/2024	AC Calibration Date
THERMOSELECT	IQUANT	1	Thermo Select
FRAMEWORKVERSION	LABEL	7.8.4	Framework Version
INSTRUMENTVERSION	LABEL	4.42	Instrument Version
CURVE1	TABLE
	Pt	T	Vf	Im	Vu	Sig	Ach	IERange	Over	Temp
	#	s	V vs. Ref.	A	V	V	V	#	bits	deg C
	0	0.2	-2.13431E-001	1.56086E-009	0.00000E+000	-2.13600E-001	9.43592E-004	5	..........a	-327.66
	3	0.8	-1.83556E-001	1.19722E-008	0.00000E+000	-1.83600E-001	9.61792E-004	5	..........a	-327.66
	6	1.4	-1.53619E-001	1.74502E-008	0.00000E+000	-1.53600E-001	9.67692E-004	5	..........a	-327.66
	9	2	-1.23561E-001	2.19955E-008	0.00000E+000	-1.23600E-001	9.62992E-004	5	..........a	-327.66
	12	2.6	-9.35101E-002	2.62652E-008	0.00000E+000	-9.36000E-002	9.60492E-004	5	..........a	-327.66
	15	3.2	-6.35250E-002	3.04664E-008	0.00000E+000	-6.36000E-002	9.60992E-004	5	..........a	-327.66
	18	3.8	-3.36015E-002	3.48638E-008	0.00000E+000	-3.36000E-002	9.61992E-004	5	..........a	-327.66
	21	4.4	-3.55421E-003	3.94378E-008	0.00000E+000	-3.59999E-003	9.53692E-004	5	..........a	-327.66
	24	5	2.64772E-002	4.47192E-008	0.00000E+000	2.64000E-002	9.38592E-004	5	..........a	-327.66
	27	5.6	5.64188E-002	5.07050E-008	0.00000E+000	5.64000E-002	9.64092E-004	5	..........a	-327.66
	30	6.2	8.64443E-002	5.81991E-008	0.00000E+000	8.64000E-002	9.54792E-004	5	..........a	-327.66
	33	6.8	1.16417E-001	6.79135E-008	0.00000E+000	1.16400E-001	9.61492E-004	5	..........a	-327.66
	36	7.4	1.46530E-001	8.12605E-008	0.00000E+000	1.46400E-001	9.58892E-004	5	..........a	-327.66
	39	8	1.76381E-001	1.09750E-007	0.00000E+000	1.76400E-001	9.65892E-004	5	..........a	-327.66
	42	8.6	2.06354E-001	1.12401E-007	0.00000E+000	2.06400E-001	9.61092E-004	5	..........a	-327.66
	45	9.2	2.36394E-001	1.24812E-007	0.00000E+000	2.36400E-001	9.75892E-004	5	..........a	-327.66
	48	9.8	2.66366E-001	1.38929E-007	0.00000E+000	2.66400E-001	9.54392E-004	5	..........a	-327.66
	51	10.4	2.96392E-001	1.52514E-007	0.00000E+000	2.96400E-001	9.51292E-004	5	..........a	-327.66
	54	11	3.26300E-001	1.66528E-007	0.00000E+000	3.26400E-001	9.63292E-004	5	..........a	-327.66
	57	11.6	3.56377E-001	1.81193E-007	0.00000E+000	3.56400E-001	9.65992E-004	5	..........a	-327.66
	60	12.2	3.86333E-001	1.96656E-007	0.00000E+000	3.86400E-001	9.47392E-004	5	..........a	-327.66
[...]
	1085	217.2	-5.59841E-001	-6.70941E-008	0.00000E+000	-5.60000E-001	9.45792E-004	5	..........a	-327.66
	1086	217.4	-5.49838E-001	-5.96323E-008	0.00000E+000	-5.50000E-001	9.54092E-004	5	..........a	-327.66
	1087	217.6	-5.39793E-001	-5.33027E-008	0.00000E+000	-5.40000E-001	9.43392E-004	5	..........a	-327.66
	1088	217.8	-5.29846E-001	-4.76998E-008	0.00000E+000	-5.30000E-001	9.53792E-004	5	..........a	-327.66
	1089	218	-5.19875E-001	-4.27803E-008	0.00000E+000	-5.20000E-001	9.49892E-004	5	..........a	-327.66
	1090	218.2	-5.09866E-001	-3.83301E-008	0.00000E+000	-5.10000E-001	9.57292E-004	5	..........a	-327.66
	1091	218.4	-4.99828E-001	-3.43691E-008	0.00000E+000	-5.00000E-001	9.53192E-004	5	..........a	-327.66
	1092	218.6	-4.89846E-001	-3.09040E-008	0.00000E+000	-4.90000E-001	9.56992E-004	5	..........a	-327.66
	1093	218.8	-4.79865E-001	-2.74456E-008	0.00000E+000	-4.80000E-001	9.69392E-004	5	..........a	-327.66
	1094	219	-4.69845E-001	-2.43626E-008	0.00000E+000	-4.70000E-001	9.55692E-004	5	..........a	-327.66
	1095	219.2	-4.59831E-001	-2.15286E-008	0.00000E+000	-4.60000E-001	9.56192E-004	5	..........a	-327.66
	1096	219.4	-4.49851E-001	-1.87973E-008	0.00000E+000	-4.50000E-001	9.52992E-004	5	..........a	-327.66
	1097	219.6	-4.39846E-001	-1.62896E-008	0.00000E+000	-4.40000E-001	9.57592E-004	5	..........a	-327.66
	1098	219.8	-4.29857E-001	-1.38970E-008	0.00000E+000	-4.30000E-001	9.70992E-004	5	..........a	-327.66
	1099	220	-4.19834E-001	-1.15846E-008	0.00000E+000	-4.20000E-001	9.50992E-004	5	..........a	-327.66
	1100	220.2	-4.09860E-001	-9.42984E-009	0.00000E+000	-4.10000E-001	9.61492E-004	5	..........a	-327.66
	1101	220.4	-3.99882E-001	-7.24136E-009	0.00000E+000	-4.00000E-001	9.63592E-004	5	..........a	-327.66
	1102	220.6	-3.89884E-001	-5.27763E-009	0.00000E+000	-3.90000E-001	9.55392E-004	5	..........a	-327.66
	1103	220.8	-3.79847E-001	-3.30155E-009	0.00000E+000	-3.80000E-001	9.36592E-004	5	..........a	-327.66
	1104	221	-3.69887E-001	-1.41835E-009	0.00000E+000	-3.70000E-001	9.72692E-004	5	..........a	-327.66
	1105	221.2	-3.59945E-001	-1.41869E-010	0.00000E+000	-3.60000E-001	9.50492E-004	5	..........a	-327.66
	1106	221.4	-3.49904E-001	2.12379E-009	0.00000E+000	-3.50000E-001	9.59692E-004	5	..........a	-327.66
	1107	221.6	-3.39848E-001	3.91143E-009	0.00000E+000	-3.40000E-001	9.57992E-004	5	..........a	-327.66
	1108	221.8	-3.29915E-001	5.58880E-009	0.00000E+000	-3.30000E-001	9.63092E-004	5	..........a	-327.66
	1109	222	-3.19898E-001	7.22419E-009	0.00000E+000	-3.20000E-001	9.55392E-004	5	..........a	-327.66
	1110	222.2	-3.09927E-001	8.83474E-009	0.00000E+000	-3.10000E-001	9.55892E-004	5	..........a	-327.66
	1111	222.4	-2.99863E-001	1.04066E-008	0.00000E+000	-3.00000E-001	9.34792E-004	5	..........a	-327.66
	1112	222.6	-2.89900E-001	1.19324E-008	0.00000E+000	-2.90000E-001	9.53992E-004	5	..........a	-327.66
	1113	222.8	-2.79963E-001	1.33640E-008	0.00000E+000	-2.80000E-001	9.61592E-004	5	..........a	-327.66
	1114	223	-2.69882E-001	1.49169E-008	0.00000E+000	-2.70000E-001	9.49492E-004	5	..........a	-327.66
	1115	223.2	-2.59851E-001	1.64192E-008	0.00000E+000	-2.60000E-001	9.61192E-004	5	..........a	-327.66
	1116	223.4	-2.49902E-001	1.79238E-008	0.00000E+000	-2.50000E-001	9.56692E-004	5	..........a	-327.66
	1117	223.6	-2.39919E-001	1.93584E-008	0.00000E+000	-2.40000E-001	9.50792E-004	5	..........a	-327.66
	1118	223.8	-2.29955E-001	2.07647E-008	0.00000E+000	-2.30000E-001	9.70892E-004	5	..........a	-327.66
	1119	224	-2.19888E-001	2.22372E-008	0.00000E+000	-2.20000E-001	9.41692E-004	5	..........a	-327.66
	1120	224.2	-2.09930E-001	2.36485E-008	0.00000E+000	-2.10000E-001	9.56492E-004	5	..........a	-327.66