Folder: GamryParser/example_project/raw_outputs (part 17)

File: 20240509_ZZI_GM0016_HL03_E09_CV50.DTA
EXPLAIN
TAG	CV
TITLE	LABEL	Cyclic Voltammetry	Test &Identifier
DATE	LABEL	5/9/2024	Date
TIME	LABEL	14:17:42	Time
NOTES	NOTES	1	&Notes...

PSTAT	PSTAT	REF600P-43058	Potentiostat
VINIT	POTEN	0.00000E+000	T	Initial &E (V)
VLIMIT1	POTEN	8.00000E-001	F	Scan Limit &1 (V)
VLIMIT2	POTEN	-6.00000E-001	F	Scan Limit &2 (V)
VFINAL	POTEN	0.00000E+000	T	Final &E (V)
SCANRATE	QUANT	4.99999E+001	&Scan Rate (mV/s)
STEPSIZE	QUANT	1.00000E+001	St&ep Size (mV)
CYCLES	IQUANT	4	C&ycles (#)
IMODE	SELECTOR	0	I/E Range &Mode
IRANGE	QUANT	1.00000E-005	&Max Current (mA)
AREA	QUANT	1.00000E+000	Electrode &Area (cm^2)
ELECTRODETYPE	SELECTOR	0	Electrode Type
STRIPPING	TOGGLE	F	Used for Stripping
POLARITY	TOGGLE	F	Signal Polarity
CONDIT	TWOPARAM	F	1.50000E+001	0.00000E+000	Conditionin&g	Time(s)	E(V)
DELAY	TWOPARAM	T	1.00000E+001	0.00000E+000	Init. De&lay	Time(s)	Stab.(mV/s)
EQDELAY	QUANT	1.00000E+001	Equil. &Time (s)
IRCOMP	SELECTOR	0	IRCom&p
PFCOR	QUANT	5.00000E+001	PF Corr. (ohm)
SAMPLINGMODE	SELECTOR	1	Sampling &Mode
OCVCURVE	TABLE	39
	Pt	T	Vf	Vm	Ach	Over	Temp
	#	s	V vs. Ref.	V	V	bits	deg C
	0	0.258333	-1.67840E-001	-1.67840E-001	2.31659E-004	..........a	-327.66
	1	0.516667	-1.67842E-001	-1.67921E-001	2.27259E-004	..........a	-327.66
	2	0.775	-1.67850E-001	-1.67926E-001	2.21792E-004	..........a	-327.66
	3	1.03333	-1.67869E-001	-1.67974E-001	2.16526E-004	..........a	-327.66
	4	1.29167	-1.67899E-001	-1.68049E-001	2.23592E-004	..........a	-327.66
	5	1.55	-1.67939E-001	-1.68188E-001	2.30392E-004	..........a	-327.66
	6	1.80833	-1.67996E-001	-1.68332E-001	2.28859E-004	..........a	-327.66
	7	2.06667	-1.68080E-001	-1.68477E-001	2.24126E-004	..........a	-327.66
	8	2.325	-1.68190E-001	-1.68610E-001	2.17392E-004	..........a	-327.66
	9	2.58333	-1.68320E-001	-1.68734E-001	2.30326E-004	..........a	-327.66
	10	2.84167	-1.68457E-001	-1.68869E-001	2.24592E-004	..........a	-327.66
	11	3.1	-1.68593E-001	-1.68991E-001	2.29859E-004	..........a	-327.66
	12	3.35833	-1.68726E-001	-1.69128E-001	2.28192E-004	..........a	-327.66
	13	3.61667	-1.68856E-001	-1.69252E-001	2.21926E-004	..........a	-327.66
	14	3.875	-1.68985E-001	-1.69380E-001	2.28992E-004	..........a	-327.66
	15	4.13333	-1.69114E-001	-1.69496E-001	2.23926E-004	..........a	-327.66
	16	4.39167	-1.69240E-001	-1.69597E-001	2.22992E-004	..........a	-327.66
	17	4.65	-1.69362E-001	-1.69691E-001	2.26192E-004	..........a	-327.66
	18	4.90833	-1.69477E-001	-1.69792E-001	2.34726E-004	..........a	-327.66
	19	5.16667	-1.69585E-001	-1.69928E-001	2.35326E-004	..........a	-327.66
	20	5.425	-1.69687E-001	-1.69873E-001	2.30726E-004	..........a	-327.66
	21	5.68333	-1.69775E-001	-1.69771E-001	2.27459E-004	..........a	-327.66
	22	5.94167	-1.69831E-001	-1.69893E-001	2.22192E-004	..........a	-327.66
	23	6.2	-1.69854E-001	-1.70011E-001	2.29859E-004	..........a	-327.66
	24	6.45833	-1.69874E-001	-1.70134E-001	2.21992E-004	..........a	-327.66
	25	6.71667	-1.69925E-001	-1.70258E-001	2.25659E-004	..........a	-327.66
	26	6.975	-1.70011E-001	-1.70391E-001	2.14059E-004	..........a	-327.66
	27	7.23333	-1.70124E-001	-1.70524E-001	2.12992E-004	..........a	-327.66
	28	7.49167	-1.70249E-001	-1.70656E-001	2.30126E-004	..........a	-327.66
	29	7.75	-1.70380E-001	-1.70791E-001	2.20459E-004	..........a	-327.66
	30	8.00833	-1.70512E-001	-1.70911E-001	2.25326E-004	..........a	-327.66
	31	8.26667	-1.70644E-001	-1.71041E-001	2.17859E-004	..........a	-327.66
	32	8.525	-1.70775E-001	-1.71186E-001	2.18126E-004	..........a	-327.66
	33	8.78333	-1.70906E-001	-1.71352E-001	2.08859E-004	..........a	-327.66
	34	9.04167	-1.71042E-001	-1.71509E-001	2.28926E-004	..........a	-327.66
	35	9.3	-1.71186E-001	-1.71660E-001	2.18259E-004	..........a	-327.66
	36	9.5583	-1.71337E-001	-1.71758E-001	2.23392E-004	..........a	-327.66
	37	9.8167	-1.71482E-001	-1.71727E-001	2.25926E-004	..........a	-327.66
	38	10.075	-1.71605E-001	-1.71807E-001	2.29859E-004	..........a	-327.66
EOC	QUANT	-0.1716053	Open Circuit (V)
PSTATMODEL	IQUANT	7	Pstat Model
PSTATSECTION	LABEL	REF600P-43058	Pstat Section
PSTATSERIALNO	LABEL	43058	Pstat Serial Number
CTRLMODE	IQUANT	1	Control Mode
ELECTROMETER	IQUANT	0	RE=0 or CS=1
IESTAB	IQUANT	2	I/E Stability
CASPEED	IQUANT	4	Control Amp Speed
CONVENTION	IQUANT	1	Current Convention
ICHRANGE	IQUANT	2	Ich Range
ICHRANGEMODE	TOGGLE	F	Ich Auto Range
ICHOFFSETENABLE	TOGGLE	F	Ich Offset Enable
ICHOFFSET	QUANT	0	Ich Offset (V)
ICHFILTER	IQUANT	2	Ich Filter
VCHRANGE	IQUANT	2	Vch Range
VCHRANGEMODE	TOGGLE	F	Vch Auto Range
VCHOFFSETENABLE	TOGGLE	F	Vch Offset Enable
VCHOFFSET	QUANT	0	Vch Offset (V)
VCHFILTER	IQUANT	2	Vch Filter
ACHRANGE	IQUANT	2	Ach Range
ACHOFFSETENABLE	TOGGLE	F	Ach Offset Enable
ACHOFFSET	QUANT	0	Ach Offset (V)
ACHFILTER	IQUANT	1	Ach Filter
IERANGELOWERLIMIT	IQUANT	1	I/E Range Lower Limit
IERANGEMODE	TOGGLE	T	I/E AutoRange
IERANGE	IQUANT	4	I/E Range
POSFEEDENABLE	TOGGLE	F	Positive Feedback IR Comp
POSFEEDRESISTANCE	QUANT	0	Positive Feedback Resistance (ohm)
ACHSELECT	IQUANT	4	Ach Select
SENSECABLEID	IQUANT	7	Sense Cable ID
PWRCABLEID	IQUANT	7	Power Cable ID
DCCALDATE	LABEL	3/22/2024	DC Calibration Date
ACCALDATE	LABEL	3/22/2024	AC Calibration Date
THERMOSELECT	IQUANT	1	Thermo Select
FRAMEWORKVERSION	LABEL	7.8.4	Framework Version
INSTRUMENTVERSION	LABEL	4.42	Instrument Version
CURVE1	TABLE
	Pt	T	Vf	Im	Vu	Sig	Ach	IERange	Over	Temp
	#	s	V vs. Ref.	A	V	V	V	#	bits	deg C
	0	0.2	-1.71524E-001	1.26032E-009	0.00000E+000	-1.71600E-001	9.82692E-004	5	..........a	-327.66
	3	0.8	-1.41519E-001	1.13447E-008	0.00000E+000	-1.41600E-001	9.60492E-004	5	..........a	-327.66
	6	1.4	-1.11538E-001	1.66806E-008	0.00000E+000	-1.11600E-001	9.96892E-004	5	..........a	-327.66
	9	2	-8.15520E-002	2.13937E-008	0.00000E+000	-8.16000E-002	9.96792E-004	5	..........a	-327.66
	12	2.6	-5.15248E-002	2.59917E-008	0.00000E+000	-5.16000E-002	9.87692E-004	5	..........a	-327.66
	15	3.2	-2.15071E-002	3.08349E-008	0.00000E+000	-2.16000E-002	9.67692E-004	5	..........a	-327.66
	18	3.8	8.49484E-003	3.62015E-008	0.00000E+000	8.40000E-003	9.93292E-004	5	..........a	-327.66
	21	4.4	3.84933E-002	4.23846E-008	0.00000E+000	3.84000E-002	9.85492E-004	5	..........a	-327.66
	24	5	6.84062E-002	5.01266E-008	0.00000E+000	6.84000E-002	9.82792E-004	5	..........a	-327.66
	27	5.6	9.85043E-002	5.97614E-008	0.00000E+000	9.84000E-002	9.76892E-004	5	..........a	-327.66
	30	6.2	1.28413E-001	7.16922E-008	0.00000E+000	1.28400E-001	9.95392E-004	5	..........a	-327.66
	33	6.8	1.58401E-001	8.63023E-008	0.00000E+000	1.58400E-001	9.89092E-004	5	..........a	-327.66
	36	7.4	1.88469E-001	1.03203E-007	0.00000E+000	1.88400E-001	9.85592E-004	5	..........a	-327.66
	39	8	2.18489E-001	1.21099E-007	0.00000E+000	2.18400E-001	9.80392E-004	5	..........a	-327.66
	42	8.6	2.48351E-001	1.39382E-007	0.00000E+000	2.48400E-001	9.93492E-004	5	..........a	-327.66
	45	9.2	2.78330E-001	1.56032E-007	0.00000E+000	2.78400E-001	1.00079E-003	5	..........a	-327.66
	48	9.8	3.08398E-001	1.71239E-007	0.00000E+000	3.08400E-001	9.75592E-004	5	..........a	-327.66
	51	10.4	3.38364E-001	1.86453E-007	0.00000E+000	3.38400E-001	9.70492E-004	5	..........a	-327.66
	54	11	3.68352E-001	2.01228E-007	0.00000E+000	3.68400E-001	9.77292E-004	5	..........a	-327.66
	57	11.6	3.98333E-001	2.16545E-007	0.00000E+000	3.98400E-001	9.72292E-004	5	..........a	-327.66
	60	12.2	4.28346E-001	2.32229E-007	0.00000E+000	4.28400E-001	9.88592E-004	5	..........a	-327.66
[...]
	1085	217.2	-5.19840E-001	-7.48062E-008	0.00000E+000	-5.20000E-001	9.71292E-004	5	..........a	-327.66
	1086	217.4	-5.09837E-001	-6.93647E-008	0.00000E+000	-5.10000E-001	9.86992E-004	5	..........a	-327.66
	1087	217.6	-4.99808E-001	-6.43357E-008	0.00000E+000	-5.00000E-001	9.80992E-004	5	..........a	-327.66
	1088	217.8	-4.89823E-001	-5.95617E-008	0.00000E+000	-4.90000E-001	9.80392E-004	5	..........a	-327.66
	1089	218	-4.79823E-001	-5.51812E-008	0.00000E+000	-4.80000E-001	9.83992E-004	5	..........a	-327.66
	1090	218.2	-4.69831E-001	-5.09393E-008	0.00000E+000	-4.70000E-001	9.72392E-004	5	..........a	-327.66
	1091	218.4	-4.59796E-001	-4.69437E-008	0.00000E+000	-4.60000E-001	9.84192E-004	5	..........a	-327.66
	1092	218.6	-4.49835E-001	-4.31213E-008	0.00000E+000	-4.50000E-001	9.78692E-004	5	..........a	-327.66
	1093	218.8	-4.39842E-001	-3.94278E-008	0.00000E+000	-4.40000E-001	9.73492E-004	5	..........a	-327.66
	1094	219	-4.29847E-001	-3.59606E-008	0.00000E+000	-4.30000E-001	9.60092E-004	5	..........a	-327.66
	1095	219.2	-4.19769E-001	-3.25765E-008	0.00000E+000	-4.20000E-001	9.78492E-004	5	..........a	-327.66
	1096	219.4	-4.09847E-001	-2.93825E-008	0.00000E+000	-4.10000E-001	9.86392E-004	5	..........a	-327.66
	1097	219.6	-3.99856E-001	-2.62548E-008	0.00000E+000	-4.00000E-001	9.80692E-004	5	..........a	-327.66
	1098	219.8	-3.89916E-001	-2.32957E-008	0.00000E+000	-3.90000E-001	9.82592E-004	5	..........a	-327.66
	1099	220	-3.79829E-001	-2.03669E-008	0.00000E+000	-3.80000E-001	9.64392E-004	5	..........a	-327.66
	1100	220.2	-3.69877E-001	-1.75260E-008	0.00000E+000	-3.70000E-001	9.92892E-004	5	..........a	-327.66
	1101	220.4	-3.59870E-001	-1.48221E-008	0.00000E+000	-3.60000E-001	9.80592E-004	5	..........a	-327.66
	1102	220.6	-3.49881E-001	-1.21325E-008	0.00000E+000	-3.50000E-001	9.84092E-004	5	..........a	-327.66
	1103	220.8	-3.39825E-001	-9.56208E-009	0.00000E+000	-3.40000E-001	9.81692E-004	5	..........a	-327.66
	1104	221	-3.29903E-001	-7.07326E-009	0.00000E+000	-3.30000E-001	9.88692E-004	5	..........a	-327.66
	1105	221.2	-3.19854E-001	-4.64387E-009	0.00000E+000	-3.20000E-001	9.84992E-004	5	..........a	-327.66
	1106	221.4	-3.09922E-001	-2.32110E-009	0.00000E+000	-3.10000E-001	9.83992E-004	5	..........a	-327.66
	1107	221.6	-2.99854E-001	-5.26555E-011	0.00000E+000	-3.00000E-001	9.78292E-004	5	..........a	-327.66
	1108	221.8	-2.89928E-001	2.26672E-009	0.00000E+000	-2.90000E-001	1.00049E-003	5	..........a	-327.66
	1109	222	-2.79919E-001	4.47812E-009	0.00000E+000	-2.80000E-001	9.94592E-004	5	..........a	-327.66
	1110	222.2	-2.69867E-001	6.55844E-009	0.00000E+000	-2.70000E-001	9.78892E-004	5	..........a	-327.66
	1111	222.4	-2.59829E-001	8.61872E-009	0.00000E+000	-2.60000E-001	9.77192E-004	5	..........a	-327.66
	1112	222.6	-2.49887E-001	1.06540E-008	0.00000E+000	-2.50000E-001	9.82992E-004	5	..........a	-327.66
	1113	222.8	-2.39956E-001	1.26158E-008	0.00000E+000	-2.40000E-001	9.96392E-004	5	..........a	-327.66
	1114	223	-2.29930E-001	1.45596E-008	0.00000E+000	-2.30000E-001	9.88792E-004	5	..........a	-327.66
	1115	223.2	-2.19872E-001	1.64160E-008	0.00000E+000	-2.20000E-001	9.81692E-004	5	..........a	-327.66
	1116	223.4	-2.09931E-001	1.82676E-008	0.00000E+000	-2.10000E-001	9.92792E-004	5	..........a	-327.66
	1117	223.6	-1.99958E-001	2.00788E-008	0.00000E+000	-2.00000E-001	9.86992E-004	5	..........a	-327.66
	1118	223.8	-1.90197E-001	2.18572E-008	0.00000E+000	-1.90000E-001	9.74192E-004	5	..........a	-327.66
	1119	224	-1.79934E-001	2.35914E-008	0.00000E+000	-1.80000E-001	9.66092E-004	5	..........a	-327.66
	1120	224.2	-1.69892E-001	2.53346E-008	0.00000E+000	-1.70000E-001	9.76092E-004	5	..........a	-327.66

File: 20240509_ZZQ_GM0016_HL03_E11_CV50.DTA
EXPLAIN
TAG	CV
TITLE	LABEL	Cyclic Voltammetry	Test &Identifier
DATE	LABEL	5/9/2024	Date
TIME	LABEL	14:43:11	Time
NOTES	NOTES	1	&Notes...

PSTAT	PSTAT	REF600P-43058	Potentiostat
VINIT	POTEN	0.00000E+000	T	Initial &E (V)
VLIMIT1	POTEN	8.00000E-001	F	Scan Limit &1 (V)
VLIMIT2	POTEN	-6.00000E-001	F	Scan Limit &2 (V)
VFINAL	POTEN	0.00000E+000	T	Final &E (V)
SCANRATE	QUANT	4.99999E+001	&Scan Rate (mV/s)
STEPSIZE	QUANT	1.00000E+001	St&ep Size (mV)
CYCLES	IQUANT	4	C&ycles (#)
IMODE	SELECTOR	0	I/E Range &Mode
IRANGE	QUANT	1.00000E-005	&Max Current (mA)
AREA	QUANT	1.00000E+000	Electrode &Area (cm^2)
ELECTRODETYPE	SELECTOR	0	Electrode Type
STRIPPING	TOGGLE	F	Used for Stripping
POLARITY	TOGGLE	F	Signal Polarity
CONDIT	TWOPARAM	F	1.50000E+001	0.00000E+000	Conditionin&g	Time(s)	E(V)
DELAY	TWOPARAM	T	1.00000E+001	0.00000E+000	Init. De&lay	Time(s)	Stab.(mV/s)
EQDELAY	QUANT	1.00000E+001	Equil. &Time (s)
IRCOMP	SELECTOR	0	IRCom&p
PFCOR	QUANT	5.00000E+001	PF Corr. (ohm)
SAMPLINGMODE	SELECTOR	1	Sampling &Mode
OCVCURVE	TABLE	39
	Pt	T	Vf	Vm	Ach	Over	Temp
	#	s	V vs. Ref.	V	V	bits	deg C
	0	0.258333	-1.67884E-001	-1.67884E-001	1.96926E-004	..........a	-327.66
	1	0.516667	-1.67890E-001	-1.68208E-001	2.07326E-004	..........a	-327.66
	2	0.775	-1.67929E-001	-1.68530E-001	2.02659E-004	..........a	-327.66
	3	1.03333	-1.68038E-001	-1.68858E-001	1.93926E-004	..........a	-327.66
	4	1.29167	-1.68238E-001	-1.69186E-001	1.99792E-004	..........a	-327.66
	5	1.55	-1.68511E-001	-1.69506E-001	1.98726E-004	..........a	-327.66
	6	1.80833	-1.68824E-001	-1.69827E-001	1.98659E-004	..........a	-327.66
	7	2.06667	-1.69149E-001	-1.70111E-001	2.05059E-004	..........a	-327.66
	8	2.325	-1.69472E-001	-1.70412E-001	2.01792E-004	..........a	-327.66
	9	2.58333	-1.69785E-001	-1.70653E-001	1.93459E-004	..........a	-327.66
	10	2.84167	-1.70083E-001	-1.70911E-001	1.98126E-004	..........a	-327.66
	11	3.1	-1.70365E-001	-1.71166E-001	1.93459E-004	..........a	-327.66
	12	3.35833	-1.70633E-001	-1.71445E-001	2.02792E-004	..........a	-327.66
	13	3.61667	-1.70895E-001	-1.71716E-001	2.01126E-004	..........a	-327.66
	14	3.875	-1.71158E-001	-1.72007E-001	1.96326E-004	..........a	-327.66
	15	4.13333	-1.71427E-001	-1.72287E-001	2.09192E-004	..........a	-327.66
	16	4.39167	-1.71702E-001	-1.72569E-001	2.14259E-004	..........a	-327.66
	17	4.65	-1.71982E-001	-1.72864E-001	2.06392E-004	..........a	-327.66
	18	4.90833	-1.72266E-001	-1.73139E-001	2.01992E-004	..........a	-327.66
	19	5.16667	-1.72550E-001	-1.73419E-001	1.95992E-004	..........a	-327.66
	20	5.425	-1.72834E-001	-1.73711E-001	1.96726E-004	..........a	-327.66
	21	5.68333	-1.73118E-001	-1.74012E-001	1.98526E-004	..........a	-327.66
	22	5.94167	-1.73404E-001	-1.74302E-001	2.01059E-004	..........a	-327.66
	23	6.2	-1.73693E-001	-1.74587E-001	2.09326E-004	..........a	-327.66
	24	6.45833	-1.73985E-001	-1.74877E-001	2.09259E-004	..........a	-327.66
	25	6.71667	-1.74276E-001	-1.75166E-001	2.13392E-004	..........a	-327.66
	26	6.975	-1.74565E-001	-1.75443E-001	1.97326E-004	..........a	-327.66
	27	7.23333	-1.74853E-001	-1.75695E-001	1.98126E-004	..........a	-327.66
	28	7.49167	-1.75136E-001	-1.75990E-001	1.94792E-004	..........a	-327.66
	29	7.75	-1.75414E-001	-1.76276E-001	2.06059E-004	..........a	-327.66
	30	8.00833	-1.75690E-001	-1.76556E-001	1.98459E-004	..........a	-327.66
	31	8.26667	-1.75970E-001	-1.76845E-001	1.98326E-004	..........a	-327.66
	32	8.525	-1.76252E-001	-1.77131E-001	2.10592E-004	..........a	-327.66
	33	8.78333	-1.76536E-001	-1.77409E-001	1.95659E-004	..........a	-327.66
	34	9.04167	-1.76821E-001	-1.77692E-001	2.00992E-004	..........a	-327.66
	35	9.3	-1.77105E-001	-1.77968E-001	2.06592E-004	..........a	-327.66
	36	9.5583	-1.77387E-001	-1.78235E-001	1.98259E-004	..........a	-327.66
	37	9.8167	-1.77666E-001	-1.78498E-001	2.04126E-004	..........a	-327.66
	38	10.075	-1.77941E-001	-1.78765E-001	1.98259E-004	..........a	-327.66
EOC	QUANT	-0.177941	Open Circuit (V)
PSTATMODEL	IQUANT	7	Pstat Model
PSTATSECTION	LABEL	REF600P-43058	Pstat Section
PSTATSERIALNO	LABEL	43058	Pstat Serial Number
CTRLMODE	IQUANT	1	Control Mode
ELECTROMETER	IQUANT	0	RE=0 or CS=1
IESTAB	IQUANT	2	I/E Stability
CASPEED	IQUANT	4	Control Amp Speed
CONVENTION	IQUANT	1	Current Convention
ICHRANGE	IQUANT	2	Ich Range
ICHRANGEMODE	TOGGLE	F	Ich Auto Range
ICHOFFSETENABLE	TOGGLE	F	Ich Offset Enable
ICHOFFSET	QUANT	0	Ich Offset (V)
ICHFILTER	IQUANT	2	Ich Filter
VCHRANGE	IQUANT	2	Vch Range
VCHRANGEMODE	TOGGLE	F	Vch Auto Range
VCHOFFSETENABLE	TOGGLE	F	Vch Offset Enable
VCHOFFSET	QUANT	0	Vch Offset (V)
VCHFILTER	IQUANT	2	Vch Filter
ACHRANGE	IQUANT	2	Ach Range
ACHOFFSETENABLE	TOGGLE	F	Ach Offset Enable
ACHOFFSET	QUANT	0	Ach Offset (V)
ACHFILTER	IQUANT	1	Ach Filter
IERANGELOWERLIMIT	IQUANT	1	I/E Range Lower Limit
IERANGEMODE	TOGGLE	T	I/E AutoRange
IERANGE	IQUANT	4	I/E Range
POSFEEDENABLE	TOGGLE	F	Positive Feedback IR Comp
POSFEEDRESISTANCE	QUANT	0	Positive Feedback Resistance (ohm)
ACHSELECT	IQUANT	4	Ach Select
SENSECABLEID	IQUANT	7	Sense Cable ID
PWRCABLEID	IQUANT	7	Power Cable ID
DCCALDATE	LABEL	3/22/2024	DC Calibration Date
ACCALDATE	LABEL	3/22/2024	AC Calibration Date
THERMOSELECT	IQUANT	1	Thermo Select
FRAMEWORKVERSION	LABEL	7.8.4	Framework Version
INSTRUMENTVERSION	LABEL	4.42	Instrument Version
CURVE1	TABLE
	Pt	T	Vf	Im	Vu	Sig	Ach	IERange	Over	Temp
	#	s	V vs. Ref.	A	V	V	V	#	bits	deg C
	0	0.2	-1.77905E-001	6.34781E-009	0.00000E+000	-1.77950E-001	9.62992E-004	5	..........a	-327.66
	3	0.8	-1.47919E-001	5.34825E-008	0.00000E+000	-1.47950E-001	9.44592E-004	5	..........a	-327.66
	6	1.4	-1.17932E-001	7.93532E-008	0.00000E+000	-1.17950E-001	9.60992E-004	5	..........a	-327.66
	9	2	-8.80069E-002	9.93080E-008	0.00000E+000	-8.79500E-002	9.51192E-004	5	..........a	-327.66
	12	2.6	-5.79360E-002	1.17753E-007	0.00000E+000	-5.79500E-002	9.57492E-004	5	..........a	-327.66
	15	3.2	-2.79501E-002	1.35085E-007	0.00000E+000	-2.79500E-002	9.60192E-004	5	..........a	-327.66
	18	3.8	2.02754E-003	1.52543E-007	0.00000E+000	2.05000E-003	9.68792E-004	5	..........a	-327.66
	21	4.4	3.19907E-002	1.69416E-007	0.00000E+000	3.20500E-002	9.86792E-004	5	..........a	-327.66
	24	5	6.20472E-002	1.87930E-007	0.00000E+000	6.20500E-002	9.68592E-004	5	..........a	-327.66
	27	5.6	9.19081E-002	2.08574E-007	0.00000E+000	9.20500E-002	9.61592E-004	5	..........a	-327.66
	30	6.2	1.21965E-001	2.32346E-007	0.00000E+000	1.22050E-001	9.65292E-004	5	..........a	-327.66
	33	6.8	1.51954E-001	2.57978E-007	0.00000E+000	1.52050E-001	9.67292E-004	5	..........a	-327.66
	36	7.4	1.81973E-001	2.87175E-007	0.00000E+000	1.82050E-001	9.79492E-004	5	..........a	-327.66
	39	8	2.11926E-001	3.17206E-007	0.00000E+000	2.12050E-001	9.62592E-004	5	..........a	-327.66
	42	8.6	2.41910E-001	3.40487E-007	0.00000E+000	2.42050E-001	9.69892E-004	5	..........a	-327.66
	45	9.2	2.71866E-001	3.62393E-007	0.00000E+000	2.72050E-001	9.58892E-004	5	..........a	-327.66
	48	9.8	3.01951E-001	3.84277E-007	0.00000E+000	3.02050E-001	9.52392E-004	5	..........a	-327.66
	51	10.4	3.31865E-001	4.04533E-007	0.00000E+000	3.32050E-001	9.54792E-004	5	..........a	-327.66
	54	11	3.61846E-001	4.25038E-007	0.00000E+000	3.62050E-001	9.78492E-004	5	..........a	-327.66
	57	11.6	3.91839E-001	4.43978E-007	0.00000E+000	3.92050E-001	9.47892E-004	5	..........a	-327.66
	60	12.2	4.21853E-001	4.65077E-007	0.00000E+000	4.22050E-001	9.54092E-004	5	..........a	-327.66
[...]
	1085	217.2	-5.29816E-001	-1.54119E-007	0.00000E+000	-5.30000E-001	9.54292E-004	5	..........a	-327.66
	1086	217.4	-5.19818E-001	-1.40061E-007	0.00000E+000	-5.20000E-001	9.62592E-004	5	..........a	-327.66
	1087	217.6	-5.09811E-001	-1.26225E-007	0.00000E+000	-5.10000E-001	9.57992E-004	5	..........a	-327.66
	1088	217.8	-4.99803E-001	-1.12570E-007	0.00000E+000	-5.00000E-001	9.45992E-004	5	..........a	-327.66
	1089	218	-4.89819E-001	-9.97645E-008	0.00000E+000	-4.90000E-001	9.49192E-004	5	..........a	-327.66
	1090	218.2	-4.79806E-001	-8.77964E-008	0.00000E+000	-4.80000E-001	9.64892E-004	5	..........a	-327.66
	1091	218.4	-4.69829E-001	-7.66702E-008	0.00000E+000	-4.70000E-001	9.54192E-004	5	..........a	-327.66
	1092	218.6	-4.59797E-001	-6.61392E-008	0.00000E+000	-4.60000E-001	9.52292E-004	5	..........a	-327.66
	1093	218.8	-4.49839E-001	-5.62589E-008	0.00000E+000	-4.50000E-001	9.52592E-004	5	..........a	-327.66
	1094	219	-4.39818E-001	-4.68476E-008	0.00000E+000	-4.40000E-001	9.58092E-004	5	..........a	-327.66
	1095	219.2	-4.29858E-001	-3.78504E-008	0.00000E+000	-4.30000E-001	9.51092E-004	5	..........a	-327.66
	1096	219.4	-4.19818E-001	-2.92327E-008	0.00000E+000	-4.20000E-001	9.51792E-004	5	..........a	-327.66
	1097	219.6	-4.09862E-001	-2.08376E-008	0.00000E+000	-4.10000E-001	9.54392E-004	5	..........a	-327.66
	1098	219.8	-3.99869E-001	-1.29639E-008	0.00000E+000	-4.00000E-001	9.66592E-004	5	..........a	-327.66
	1099	220	-3.89901E-001	-5.40917E-009	0.00000E+000	-3.90000E-001	9.62992E-004	5	..........a	-327.66
	1100	220.2	-3.79873E-001	1.87621E-009	0.00000E+000	-3.80000E-001	9.51792E-004	5	..........a	-327.66
	1101	220.4	-3.69889E-001	8.84106E-009	0.00000E+000	-3.70000E-001	9.52992E-004	5	..........a	-327.66
	1102	220.6	-3.59931E-001	1.56890E-008	0.00000E+000	-3.60000E-001	9.70692E-004	5	..........a	-327.66
	1103	220.8	-3.49907E-001	2.22955E-008	0.00000E+000	-3.50000E-001	9.51292E-004	5	..........a	-327.66
	1104	221	-3.39872E-001	2.87424E-008	0.00000E+000	-3.40000E-001	9.58592E-004	5	..........a	-327.66
	1105	221.2	-3.29932E-001	3.50423E-008	0.00000E+000	-3.30000E-001	9.69792E-004	5	..........a	-327.66
	1106	221.4	-3.19907E-001	4.11318E-008	0.00000E+000	-3.20000E-001	9.60992E-004	5	..........a	-327.66
	1107	221.6	-3.09944E-001	4.71436E-008	0.00000E+000	-3.10000E-001	9.67292E-004	5	..........a	-327.66
	1108	221.8	-2.99897E-001	5.30134E-008	0.00000E+000	-3.00000E-001	9.68092E-004	5	..........a	-327.66
	1109	222	-2.89930E-001	5.88034E-008	0.00000E+000	-2.90000E-001	9.56392E-004	5	..........a	-327.66
	1110	222.2	-2.79956E-001	6.45864E-008	0.00000E+000	-2.80000E-001	9.64792E-004	5	..........a	-327.66
	1111	222.4	-2.69918E-001	7.02960E-008	0.00000E+000	-2.70000E-001	9.60292E-004	5	..........a	-327.66
	1112	222.6	-2.59906E-001	7.61484E-008	0.00000E+000	-2.60000E-001	9.54492E-004	5	..........a	-327.66
	1113	222.8	-2.49929E-001	8.16770E-008	0.00000E+000	-2.50000E-001	9.71592E-004	5	..........a	-327.66
	1114	223	-2.39965E-001	8.69460E-008	0.00000E+000	-2.40000E-001	9.51792E-004	5	..........a	-327.66
	1115	223.2	-2.29984E-001	9.22347E-008	0.00000E+000	-2.30000E-001	9.74692E-004	5	..........a	-327.66
	1116	223.4	-2.19943E-001	9.76913E-008	0.00000E+000	-2.20000E-001	9.54092E-004	5	..........a	-327.66
	1117	223.6	-2.09952E-001	1.03115E-007	0.00000E+000	-2.10000E-001	9.63192E-004	5	..........a	-327.66
	1118	223.8	-2.00017E-001	1.08743E-007	0.00000E+000	-2.00000E-001	9.66092E-004	5	..........a	-327.66
	1119	224	-1.90077E-001	1.14201E-007	0.00000E+000	-1.90000E-001	9.55592E-004	5	..........a	-327.66
	1120	224.2	-1.80013E-001	1.19501E-007	0.00000E+000	-1.80000E-001	9.45692E-004	5	..........a	-327.66