Folder: GamryParser/example_project/raw_outputs (part 12)

File: 20240424_ZN_GM0016_HL03_E10_CV50K.DTA
EXPLAIN
TAG	CV
TITLE	LABEL	Cyclic Voltammetry	Test &Identifier
DATE	LABEL	4/24/2024	Date
TIME	LABEL	18:58:37	Time
NOTES	NOTES	1	&Notes...

PSTAT	PSTAT	REF600P-43058	Potentiostat
VINIT	POTEN	0.00000E+000	T	Initial &E (V)
VLIMIT1	POTEN	-6.00000E-001	F	Scan Limit &1 (V)
VLIMIT2	POTEN	8.00000E-001	F	Scan Limit &2 (V)
VFINAL	POTEN	0.00000E+000	T	Final &E (V)
SCANRATE	QUANT	4.99999E+004	&Scan Rate (mV/s)
STEPSIZE	QUANT	1.00000E+001	St&ep Size (mV)
CYCLES	IQUANT	10	C&ycles (#)
IMODE	SELECTOR	0	I/E Range &Mode
IRANGE	QUANT	1.00000E-005	&Max Current (mA)
AREA	QUANT	1.00000E+000	Electrode &Area (cm^2)
ELECTRODETYPE	SELECTOR	0	Electrode Type
STRIPPING	TOGGLE	F	Used for Stripping
POLARITY	TOGGLE	F	Signal Polarity
CONDIT	TWOPARAM	F	1.50000E+001	0.00000E+000	Conditionin&g	Time(s)	E(V)
DELAY	TWOPARAM	T	1.00000E+001	0.00000E+000	Init. De&lay	Time(s)	Stab.(mV/s)
EQDELAY	QUANT	1.00000E+001	Equil. &Time (s)
IRCOMP	SELECTOR	0	IRCom&p
PFCOR	QUANT	5.00000E+001	PF Corr. (ohm)
SAMPLINGMODE	SELECTOR	1	Sampling &Mode
OCVCURVE	TABLE	39
	Pt	T	Vf	Vm	Ach	Over	Temp
	#	s	V vs. Ref.	V	V	bits	deg C
	0	0.258333	-5.04108E-002	-5.04108E-002	2.36392E-004	..........a	-327.66
	1	0.516667	-5.04140E-002	-5.05808E-002	2.53992E-004	..........a	-327.66
	2	0.775	-5.04341E-002	-5.07477E-002	2.33859E-004	..........a	-327.66
	3	1.03333	-5.04914E-002	-5.09176E-002	2.31526E-004	..........a	-327.66
	4	1.29167	-5.05955E-002	-5.10862E-002	2.29792E-004	..........a	-327.66
	5	1.55	-5.07374E-002	-5.12615E-002	2.44592E-004	..........a	-327.66
	6	1.80833	-5.09003E-002	-5.14241E-002	2.22392E-004	..........a	-327.66
	7	2.06667	-5.10708E-002	-5.15908E-002	2.25526E-004	..........a	-327.66
	8	2.325	-5.12418E-002	-5.17571E-002	2.34326E-004	..........a	-327.66
	9	2.58333	-5.14108E-002	-5.19198E-002	2.43792E-004	..........a	-327.66
	10	2.84167	-5.15775E-002	-5.20804E-002	2.37259E-004	..........a	-327.66
	11	3.1	-5.17425E-002	-5.22418E-002	2.39392E-004	..........a	-327.66
	12	3.35833	-5.19058E-002	-5.24007E-002	2.31792E-004	..........a	-327.66
	13	3.61667	-5.20677E-002	-5.25611E-002	2.41459E-004	..........a	-327.66
	14	3.875	-5.22283E-002	-5.27115E-002	2.26126E-004	..........a	-327.66
	15	4.13333	-5.23875E-002	-5.28661E-002	2.28526E-004	..........a	-327.66
	16	4.39167	-5.25447E-002	-5.30192E-002	2.16859E-004	..........a	-327.66
	17	4.65	-5.27000E-002	-5.31688E-002	2.21392E-004	..........a	-327.66
	18	4.90833	-5.28536E-002	-5.33225E-002	2.34526E-004	..........a	-327.66
	19	5.16667	-5.30062E-002	-5.34713E-002	2.28192E-004	..........a	-327.66
	20	5.425	-5.31580E-002	-5.36218E-002	2.39926E-004	..........a	-327.66
	21	5.68333	-5.33092E-002	-5.37732E-002	2.42059E-004	..........a	-327.66
	22	5.94167	-5.34600E-002	-5.39271E-002	2.32326E-004	..........a	-327.66
	23	6.2	-5.36109E-002	-5.40737E-002	2.32126E-004	..........a	-327.66
	24	6.45833	-5.37617E-002	-5.42119E-002	2.34059E-004	..........a	-327.66
	25	6.71667	-5.39111E-002	-5.43546E-002	2.33192E-004	..........a	-327.66
	26	6.975	-5.40578E-002	-5.44998E-002	2.48259E-004	..........a	-327.66
	27	7.23333	-5.42021E-002	-5.46456E-002	2.25126E-004	..........a	-327.66
	28	7.49167	-5.43456E-002	-5.47885E-002	2.28992E-004	..........a	-327.66
	29	7.75	-5.44890E-002	-5.49172E-002	2.33592E-004	..........a	-327.66
	30	8.00833	-5.46314E-002	-5.50595E-002	2.38059E-004	..........a	-327.66
	31	8.26667	-5.47720E-002	-5.52033E-002	2.30592E-004	..........a	-327.66
	32	8.525	-5.49112E-002	-5.53382E-002	2.32992E-004	..........a	-327.66
	33	8.78333	-5.50502E-002	-5.54752E-002	2.26059E-004	..........a	-327.66
	34	9.04167	-5.51890E-002	-5.56105E-002	2.33192E-004	..........a	-327.66
	35	9.3	-5.53270E-002	-5.57460E-002	2.22459E-004	..........a	-327.66
	36	9.5583	-5.54638E-002	-5.58744E-002	2.26326E-004	..........a	-327.66
	37	9.8167	-5.55991E-002	-5.60104E-002	2.45526E-004	..........a	-327.66
	38	10.075	-5.57333E-002	-5.61460E-002	2.33259E-004	..........a	-327.66
EOC	QUANT	-0.0557333	Open Circuit (V)
PSTATMODEL	IQUANT	7	Pstat Model
PSTATSECTION	LABEL	REF600P-43058	Pstat Section
PSTATSERIALNO	LABEL	43058	Pstat Serial Number
CTRLMODE	IQUANT	1	Control Mode
ELECTROMETER	IQUANT	0	RE=0 or CS=1
IESTAB	IQUANT	2	I/E Stability
CASPEED	IQUANT	4	Control Amp Speed
CONVENTION	IQUANT	1	Current Convention
ICHRANGE	IQUANT	2	Ich Range
ICHRANGEMODE	TOGGLE	F	Ich Auto Range
ICHOFFSETENABLE	TOGGLE	F	Ich Offset Enable
ICHOFFSET	QUANT	0	Ich Offset (V)
ICHFILTER	IQUANT	1	Ich Filter
VCHRANGE	IQUANT	2	Vch Range
VCHRANGEMODE	TOGGLE	F	Vch Auto Range
VCHOFFSETENABLE	TOGGLE	F	Vch Offset Enable
VCHOFFSET	QUANT	0	Vch Offset (V)
VCHFILTER	IQUANT	1	Vch Filter
ACHRANGE	IQUANT	2	Ach Range
ACHOFFSETENABLE	TOGGLE	F	Ach Offset Enable
ACHOFFSET	QUANT	0	Ach Offset (V)
ACHFILTER	IQUANT	1	Ach Filter
IERANGELOWERLIMIT	IQUANT	1	I/E Range Lower Limit
IERANGEMODE	TOGGLE	T	I/E AutoRange
IERANGE	IQUANT	4	I/E Range
POSFEEDENABLE	TOGGLE	F	Positive Feedback IR Comp
POSFEEDRESISTANCE	QUANT	0	Positive Feedback Resistance (ohm)
ACHSELECT	IQUANT	4	Ach Select
SENSECABLEID	IQUANT	7	Sense Cable ID
PWRCABLEID	IQUANT	7	Power Cable ID
DCCALDATE	LABEL	3/22/2024	DC Calibration Date
ACCALDATE	LABEL	3/22/2024	AC Calibration Date
THERMOSELECT	IQUANT	1	Thermo Select
FRAMEWORKVERSION	LABEL	7.8.4	Framework Version
INSTRUMENTVERSION	LABEL	4.42	Instrument Version
CURVE1	TABLE
	Pt	T	Vf	Im	Vu	Sig	Ach	IERange	Over	Temp
	#	s	V vs. Ref.	A	V	V	V	#	bits	deg C
	0	0.0002	-5.57529E-002	2.65002E-007	0.00000E+000	-5.57500E-002	8.15923E-005	8	..........a	-327.66
	2	0.0006	-7.56529E-002	-1.67507E-006	0.00000E+000	-7.57500E-002	8.15923E-005	8	..........a	-327.66
	4	0.001	-9.57529E-002	-2.75511E-006	0.00000E+000	-9.57500E-002	8.15923E-005	8	..........a	-327.66
	6	0.0014	-1.15653E-001	-3.50514E-006	0.00000E+000	-1.15750E-001	8.15923E-005	8	..........a	-327.66
	8	0.0018	-1.35753E-001	-4.21517E-006	0.00000E+000	-1.35750E-001	8.15923E-005	8	..........a	-327.66
	10	0.0022	-1.55653E-001	-4.67519E-006	0.00000E+000	-1.55750E-001	-3.18408E-004	8	..........a	-327.66
	12	0.0026	-1.75653E-001	-5.15521E-006	0.00000E+000	-1.75750E-001	8.15923E-005	8	..........a	-327.66
	14	0.003	-1.95703E-001	-5.48522E-006	0.00000E+000	-1.95750E-001	8.15923E-005	8	..........a	-327.66
	16	0.0034	-2.15653E-001	-5.81523E-006	0.00000E+000	-2.15750E-001	8.15923E-005	8	..........a	-327.66
	18	0.0038	-2.35653E-001	-6.04524E-006	0.00000E+000	-2.35750E-001	-3.18408E-004	8	..........a	-327.66
	20	0.0042	-2.55853E-001	-6.41525E-006	0.00000E+000	-2.55750E-001	-4.18408E-004	8	..........a	-327.66
	22	0.0046	-2.75653E-001	-6.62526E-006	0.00000E+000	-2.75750E-001	8.15923E-005	8	..........a	-327.66
	24	0.005	-2.95653E-001	-6.89527E-006	0.00000E+000	-2.95750E-001	8.15923E-005	8	..........a	-327.66
	26	0.0054	-3.15653E-001	-7.16528E-006	0.00000E+000	-3.15750E-001	8.15923E-005	8	..........a	-327.66
	28	0.0058	-3.35753E-001	-7.42529E-006	0.00000E+000	-3.35750E-001	-3.18408E-004	8	..........a	-327.66
	30	0.0062	-3.55653E-001	-7.70530E-006	0.00000E+000	-3.55750E-001	8.15923E-005	8	..........a	-327.66
	32	0.0066	-3.75753E-001	-7.99531E-006	0.00000E+000	-3.75750E-001	8.15923E-005	8	..........a	-327.66
	34	0.007	-3.95653E-001	-8.26532E-006	0.00000E+000	-3.95750E-001	8.15923E-005	8	..........a	-327.66
	36	0.0074	-4.15653E-001	-8.53533E-006	0.00000E+000	-4.15750E-001	8.15923E-005	8	..........a	-327.66
[...]
	2765	0.5532	2.90047E-001	-1.15154E-005	0.00000E+000	2.90000E-001	8.15923E-005	8	..........a	-327.66
	2766	0.5534	2.80247E-001	-1.18255E-005	0.00000E+000	2.80000E-001	8.15923E-005	8	..........a	-327.66
	2767	0.5536	2.70047E-001	-1.20755E-005	0.00000E+000	2.70000E-001	8.15923E-005	8	..........a	-327.66
	2768	0.5538	2.60147E-001	-1.23255E-005	0.00000E+000	2.60000E-001	1.81592E-004	8	..........a	-327.66
	2769	0.554	2.49897E-001	-1.25655E-005	0.00000E+000	2.50000E-001	8.15923E-005	8	..........a	-327.66
	2770	0.5542	2.39997E-001	-1.28255E-005	0.00000E+000	2.40000E-001	8.15923E-005	8	..........a	-327.66
	2771	0.5544	2.29947E-001	-1.30155E-005	0.00000E+000	2.30000E-001	8.15923E-005	8	..........a	-327.66
	2772	0.5546	2.19647E-001	-1.32255E-005	0.00000E+000	2.20000E-001	8.15923E-005	8	..........a	-327.66
	2773	0.5548	2.09947E-001	-1.33655E-005	0.00000E+000	2.10000E-001	8.15923E-005	8	..........a	-327.66
	2774	0.555	2.00147E-001	-1.35655E-005	0.00000E+000	2.00000E-001	8.15923E-005	8	..........a	-327.66
	2775	0.5552	1.90047E-001	-1.37155E-005	0.00000E+000	1.90000E-001	8.15923E-005	8	..........a	-327.66
	2776	0.5554	1.80247E-001	-1.38855E-005	0.00000E+000	1.80000E-001	8.15923E-005	8	..........a	-327.66
	2777	0.5556	1.70047E-001	-1.40755E-005	0.00000E+000	1.70000E-001	8.15923E-005	8	..........a	-327.66
	2778	0.5558	1.60047E-001	-1.42256E-005	0.00000E+000	1.60000E-001	8.15923E-005	8	..........a	-327.66
	2779	0.556	1.49947E-001	-1.43356E-005	0.00000E+000	1.50000E-001	8.15923E-005	8	..........a	-327.66
	2780	0.5562	1.40047E-001	-1.44056E-005	0.00000E+000	1.40000E-001	8.15923E-005	8	..........a	-327.66
	2781	0.5564	1.30047E-001	-1.45356E-005	0.00000E+000	1.30000E-001	8.15923E-005	8	..........a	-327.66
	2782	0.5566	1.20147E-001	-1.46956E-005	0.00000E+000	1.20000E-001	8.15923E-005	8	..........a	-327.66
	2783	0.5568	1.10047E-001	-1.47456E-005	0.00000E+000	1.10000E-001	8.15923E-005	8	..........a	-327.66
	2784	0.557	1.00147E-001	-1.49156E-005	0.00000E+000	1.00000E-001	8.15923E-005	8	..........a	-327.66
	2785	0.5572	8.99471E-002	-1.49856E-005	0.00000E+000	9.00000E-002	8.15923E-005	8	..........a	-327.66
	2786	0.5574	8.01471E-002	-1.51356E-005	0.00000E+000	8.00000E-002	8.15923E-005	8	..........a	-327.66
	2787	0.5576	6.99471E-002	-1.52756E-005	0.00000E+000	7.00000E-002	8.15923E-005	8	..........a	-327.66
	2788	0.5578	6.00471E-002	-1.54056E-005	0.00000E+000	6.00000E-002	8.15923E-005	8	..........a	-327.66
	2789	0.558	5.00471E-002	-1.55656E-005	0.00000E+000	5.00000E-002	8.15923E-005	8	..........a	-327.66
	2790	0.5582	4.01471E-002	-1.57156E-005	0.00000E+000	4.00000E-002	8.15923E-005	8	..........a	-327.66
	2791	0.5584	2.99471E-002	-1.58156E-005	0.00000E+000	3.00000E-002	8.15923E-005	8	..........a	-327.66
	2792	0.5586	2.02471E-002	-1.59456E-005	0.00000E+000	2.00000E-002	8.15923E-005	8	..........a	-327.66
	2793	0.5588	1.00471E-002	-1.60356E-005	0.00000E+000	1.00000E-002	8.15923E-005	8	..........a	-327.66
	2794	0.559	1.47114E-004	-1.61656E-005	0.00000E+000	7.45058E-009	8.15923E-005	8	..........a	-327.66
	2795	0.5592	-9.95289E-003	-1.63156E-005	0.00000E+000	-1.00000E-002	8.15923E-005	8	..........a	-327.66
	2796	0.5594	-1.99529E-002	-1.64856E-005	0.00000E+000	-2.00000E-002	8.15923E-005	8	..........a	-327.66
	2797	0.5596	-2.99529E-002	-1.66456E-005	0.00000E+000	-3.00000E-002	8.15923E-005	8	..........a	-327.66
	2798	0.5598	-4.01529E-002	-1.67556E-005	0.00000E+000	-4.00000E-002	8.15923E-005	8	..........a	-327.66
	2799	0.56	-4.99529E-002	-1.69357E-005	0.00000E+000	-5.00000E-002	8.15923E-005	8	..........a	-327.66
	2800	0.5602	-5.97529E-002	-1.71657E-005	0.00000E+000	-6.00000E-002	8.15923E-005	8	..........a	-327.66

File: 20240424_ZQ_GM0016_HL03_E11_CV50.DTA
EXPLAIN
TAG	CV
TITLE	LABEL	Cyclic Voltammetry	Test &Identifier
DATE	LABEL	4/24/2024	Date
TIME	LABEL	19:06:35	Time
NOTES	NOTES	1	&Notes...

PSTAT	PSTAT	REF600P-43058	Potentiostat
VINIT	POTEN	0.00000E+000	T	Initial &E (V)
VLIMIT1	POTEN	-6.00000E-001	F	Scan Limit &1 (V)
VLIMIT2	POTEN	8.00000E-001	F	Scan Limit &2 (V)
VFINAL	POTEN	0.00000E+000	T	Final &E (V)
SCANRATE	QUANT	4.99999E+001	&Scan Rate (mV/s)
STEPSIZE	QUANT	1.00000E+001	St&ep Size (mV)
CYCLES	IQUANT	4	C&ycles (#)
IMODE	SELECTOR	0	I/E Range &Mode
IRANGE	QUANT	1.00000E-005	&Max Current (mA)
AREA	QUANT	1.00000E+000	Electrode &Area (cm^2)
ELECTRODETYPE	SELECTOR	0	Electrode Type
STRIPPING	TOGGLE	F	Used for Stripping
POLARITY	TOGGLE	F	Signal Polarity
CONDIT	TWOPARAM	F	1.50000E+001	0.00000E+000	Conditionin&g	Time(s)	E(V)
DELAY	TWOPARAM	T	1.00000E+001	0.00000E+000	Init. De&lay	Time(s)	Stab.(mV/s)
EQDELAY	QUANT	1.00000E+001	Equil. &Time (s)
IRCOMP	SELECTOR	0	IRCom&p
PFCOR	QUANT	5.00000E+001	PF Corr. (ohm)
SAMPLINGMODE	SELECTOR	1	Sampling &Mode
OCVCURVE	TABLE	39
	Pt	T	Vf	Vm	Ach	Over	Temp
	#	s	V vs. Ref.	V	V	bits	deg C
	0	0.258333	-1.23083E-002	-1.23083E-002	2.35326E-004	..........a	-327.66
	1	0.516667	-1.23086E-002	-1.23211E-002	2.43726E-004	..........a	-327.66
	2	0.775	-1.23100E-002	-1.23331E-002	2.45526E-004	..........a	-327.66
	3	1.03333	-1.23143E-002	-1.23452E-002	2.51526E-004	..........a	-327.66
	4	1.29167	-1.23219E-002	-1.23564E-002	2.35859E-004	..........a	-327.66
	5	1.55	-1.23321E-002	-1.23690E-002	2.51126E-004	..........a	-327.66
	6	1.80833	-1.23437E-002	-1.23819E-002	2.46126E-004	..........a	-327.66
	7	2.06667	-1.23558E-002	-1.23921E-002	2.30192E-004	..........a	-327.66
	8	2.325	-1.23679E-002	-1.24031E-002	2.50792E-004	..........a	-327.66
	9	2.58333	-1.23798E-002	-1.24171E-002	2.44326E-004	..........a	-327.66
	10	2.84167	-1.23916E-002	-1.24282E-002	2.53926E-004	..........a	-327.66
	11	3.1	-1.24033E-002	-1.24390E-002	2.41526E-004	..........a	-327.66
	12	3.35833	-1.24151E-002	-1.24480E-002	2.38992E-004	..........a	-327.66
	13	3.61667	-1.24266E-002	-1.24600E-002	2.44126E-004	..........a	-327.66
	14	3.875	-1.24375E-002	-1.24692E-002	2.38726E-004	..........a	-327.66
	15	4.13333	-1.24481E-002	-1.24791E-002	2.38259E-004	..........a	-327.66
	16	4.39167	-1.24584E-002	-1.24886E-002	2.51792E-004	..........a	-327.66
	17	4.65	-1.24685E-002	-1.25021E-002	2.54992E-004	..........a	-327.66
	18	4.90833	-1.24787E-002	-1.25114E-002	2.46859E-004	..........a	-327.66
	19	5.16667	-1.24892E-002	-1.25218E-002	2.44526E-004	..........a	-327.66
	20	5.425	-1.24999E-002	-1.25317E-002	2.46726E-004	..........a	-327.66
	21	5.68333	-1.25105E-002	-1.25419E-002	2.37859E-004	..........a	-327.66
	22	5.94167	-1.25208E-002	-1.25520E-002	2.48259E-004	..........a	-327.66
	23	6.2	-1.25310E-002	-1.25602E-002	2.34392E-004	..........a	-327.66
	24	6.45833	-1.25408E-002	-1.25673E-002	2.38526E-004	..........a	-327.66
	25	6.71667	-1.25502E-002	-1.25775E-002	2.34459E-004	..........a	-327.66
	26	6.975	-1.25591E-002	-1.25866E-002	2.50992E-004	..........a	-327.66
	27	7.23333	-1.25679E-002	-1.25982E-002	2.37659E-004	..........a	-327.66
	28	7.49167	-1.25771E-002	-1.26070E-002	2.45259E-004	..........a	-327.66
	29	7.75	-1.25866E-002	-1.26158E-002	2.45726E-004	..........a	-327.66
	30	8.00833	-1.25964E-002	-1.26247E-002	2.40859E-004	..........a	-327.66
	31	8.26667	-1.26059E-002	-1.26339E-002	2.41792E-004	..........a	-327.66
	32	8.525	-1.26151E-002	-1.26431E-002	2.53526E-004	..........a	-327.66
	33	8.78333	-1.26242E-002	-1.26520E-002	2.40859E-004	..........a	-327.66
	34	9.04167	-1.26332E-002	-1.26598E-002	2.36259E-004	..........a	-327.66
	35	9.3	-1.26422E-002	-1.26702E-002	2.42059E-004	..........a	-327.66
	36	9.5583	-1.26511E-002	-1.26792E-002	2.47592E-004	..........a	-327.66
	37	9.8167	-1.26600E-002	-1.26875E-002	2.45259E-004	..........a	-327.66
	38	10.075	-1.26691E-002	-1.26955E-002	2.38659E-004	..........a	-327.66
EOC	QUANT	-0.0126691	Open Circuit (V)
PSTATMODEL	IQUANT	7	Pstat Model
PSTATSECTION	LABEL	REF600P-43058	Pstat Section
PSTATSERIALNO	LABEL	43058	Pstat Serial Number
CTRLMODE	IQUANT	1	Control Mode
ELECTROMETER	IQUANT	0	RE=0 or CS=1
IESTAB	IQUANT	2	I/E Stability
CASPEED	IQUANT	4	Control Amp Speed
CONVENTION	IQUANT	1	Current Convention
ICHRANGE	IQUANT	2	Ich Range
ICHRANGEMODE	TOGGLE	F	Ich Auto Range
ICHOFFSETENABLE	TOGGLE	F	Ich Offset Enable
ICHOFFSET	QUANT	0	Ich Offset (V)
ICHFILTER	IQUANT	2	Ich Filter
VCHRANGE	IQUANT	2	Vch Range
VCHRANGEMODE	TOGGLE	F	Vch Auto Range
VCHOFFSETENABLE	TOGGLE	F	Vch Offset Enable
VCHOFFSET	QUANT	0	Vch Offset (V)
VCHFILTER	IQUANT	2	Vch Filter
ACHRANGE	IQUANT	2	Ach Range
ACHOFFSETENABLE	TOGGLE	F	Ach Offset Enable
ACHOFFSET	QUANT	0	Ach Offset (V)
ACHFILTER	IQUANT	1	Ach Filter
IERANGELOWERLIMIT	IQUANT	1	I/E Range Lower Limit
IERANGEMODE	TOGGLE	T	I/E AutoRange
IERANGE	IQUANT	4	I/E Range
POSFEEDENABLE	TOGGLE	F	Positive Feedback IR Comp
POSFEEDRESISTANCE	QUANT	0	Positive Feedback Resistance (ohm)
ACHSELECT	IQUANT	4	Ach Select
SENSECABLEID	IQUANT	7	Sense Cable ID
PWRCABLEID	IQUANT	7	Power Cable ID
DCCALDATE	LABEL	3/22/2024	DC Calibration Date
ACCALDATE	LABEL	3/22/2024	AC Calibration Date
THERMOSELECT	IQUANT	1	Thermo Select
FRAMEWORKVERSION	LABEL	7.8.4	Framework Version
INSTRUMENTVERSION	LABEL	4.42	Instrument Version
CURVE1	TABLE
	Pt	T	Vf	Im	Vu	Sig	Ach	IERange	Over	Temp
	#	s	V vs. Ref.	A	V	V	V	#	bits	deg C
	0	0.2	-1.25664E-002	3.30779E-010	0.00000E+000	-1.26500E-002	9.96892E-004	5	..........a	-327.66
	2	0.6	-3.25202E-002	-5.18185E-009	0.00000E+000	-3.26500E-002	1.01629E-003	5	..........a	-327.66
	4	1	-5.25666E-002	-8.87702E-009	0.00000E+000	-5.26500E-002	1.01289E-003	5	..........a	-327.66
	6	1.4	-7.25161E-002	-1.20888E-008	0.00000E+000	-7.26500E-002	9.94092E-004	5	..........a	-327.66
	8	1.8	-9.25662E-002	-1.50355E-008	0.00000E+000	-9.26500E-002	1.00759E-003	5	..........a	-327.66
	10	2.2	-1.12489E-001	-1.78766E-008	0.00000E+000	-1.12650E-001	1.01429E-003	5	..........a	-327.66
	12	2.6	-1.32592E-001	-2.06568E-008	0.00000E+000	-1.32650E-001	1.02449E-003	5	..........a	-327.66
	14	3	-1.52533E-001	-2.34177E-008	0.00000E+000	-1.52650E-001	1.00469E-003	5	..........a	-327.66
	16	3.4	-1.72584E-001	-2.61180E-008	0.00000E+000	-1.72650E-001	1.01959E-003	5	..........a	-327.66
	18	3.8	-1.92566E-001	-2.88011E-008	0.00000E+000	-1.92650E-001	1.00359E-003	5	..........a	-327.66
	20	4.2	-2.12527E-001	-3.15002E-008	0.00000E+000	-2.12650E-001	1.01159E-003	5	..........a	-327.66
	22	4.6	-2.32474E-001	-3.41902E-008	0.00000E+000	-2.32650E-001	9.97092E-004	5	..........a	-327.66
	24	5	-2.52565E-001	-3.69774E-008	0.00000E+000	-2.52650E-001	1.02059E-003	5	..........a	-327.66
	26	5.4	-2.72508E-001	-3.98414E-008	0.00000E+000	-2.72650E-001	1.01329E-003	5	..........a	-327.66
	28	5.8	-2.92501E-001	-4.29053E-008	0.00000E+000	-2.92650E-001	1.01429E-003	5	..........a	-327.66
	30	6.2	-3.12450E-001	-4.61097E-008	0.00000E+000	-3.12650E-001	1.01629E-003	5	..........a	-327.66
	32	6.6	-3.32549E-001	-4.94945E-008	0.00000E+000	-3.32650E-001	9.99192E-004	5	..........a	-327.66
	34	7	-3.52487E-001	-5.30773E-008	0.00000E+000	-3.52650E-001	1.02039E-003	5	..........a	-327.66
	36	7.4	-3.72517E-001	-5.68763E-008	0.00000E+000	-3.72650E-001	1.00179E-003	5	..........a	-327.66
	38	7.8	-3.92454E-001	-6.08062E-008	0.00000E+000	-3.92650E-001	1.02149E-003	5	..........a	-327.66
[...]
	1085	217.2	3.40092E-001	-1.90829E-008	0.00000E+000	3.40000E-001	9.98092E-004	5	..........a	-327.66
	1086	217.4	3.30006E-001	-2.12195E-008	0.00000E+000	3.30000E-001	1.00349E-003	5	..........a	-327.66
	1087	217.6	3.20049E-001	-2.33100E-008	0.00000E+000	3.20000E-001	1.01499E-003	5	..........a	-327.66
	1088	217.8	3.10058E-001	-2.55541E-008	0.00000E+000	3.10000E-001	1.01299E-003	5	..........a	-327.66
	1089	218	3.00103E-001	-2.78868E-008	0.00000E+000	3.00000E-001	1.02729E-003	5	..........a	-327.66
	1090	218.2	2.90053E-001	-3.03572E-008	0.00000E+000	2.90000E-001	1.01859E-003	5	..........a	-327.66
	1091	218.4	2.79975E-001	-3.29628E-008	0.00000E+000	2.80000E-001	1.03339E-003	5	..........a	-327.66
	1092	218.6	2.70086E-001	-3.56889E-008	0.00000E+000	2.70000E-001	1.02049E-003	5	..........a	-327.66
	1093	218.8	2.60062E-001	-3.84918E-008	0.00000E+000	2.60000E-001	1.02049E-003	5	..........a	-327.66
	1094	219	2.49993E-001	-4.14833E-008	0.00000E+000	2.50000E-001	1.00329E-003	5	..........a	-327.66
	1095	219.2	2.40086E-001	-4.44301E-008	0.00000E+000	2.40000E-001	1.00089E-003	5	..........a	-327.66
	1096	219.4	2.30024E-001	-4.72991E-008	0.00000E+000	2.30000E-001	1.02249E-003	5	..........a	-327.66
	1097	219.6	2.20013E-001	-5.00145E-008	0.00000E+000	2.20000E-001	9.99892E-004	5	..........a	-327.66
	1098	219.8	2.10030E-001	-5.24745E-008	0.00000E+000	2.10000E-001	1.02539E-003	5	..........a	-327.66
	1099	220	2.00075E-001	-5.44640E-008	0.00000E+000	2.00000E-001	1.02819E-003	5	..........a	-327.66
	1100	220.2	1.90131E-001	-5.59386E-008	0.00000E+000	1.90000E-001	1.02749E-003	5	..........a	-327.66
	1101	220.4	1.80134E-001	-5.68660E-008	0.00000E+000	1.80000E-001	9.89192E-004	5	..........a	-327.66
	1102	220.6	1.70084E-001	-5.71322E-008	0.00000E+000	1.70000E-001	1.01169E-003	5	..........a	-327.66
	1103	220.8	1.60077E-001	-5.68616E-008	0.00000E+000	1.60000E-001	1.02329E-003	5	..........a	-327.66
	1104	221	1.50086E-001	-5.60743E-008	0.00000E+000	1.50000E-001	1.01859E-003	5	..........a	-327.66
	1105	221.2	1.40147E-001	-5.49617E-008	0.00000E+000	1.40000E-001	1.00209E-003	5	..........a	-327.66
	1106	221.4	1.30060E-001	-5.36111E-008	0.00000E+000	1.30000E-001	1.02709E-003	5	..........a	-327.66
	1107	221.6	1.20062E-001	-5.21749E-008	0.00000E+000	1.20000E-001	1.02339E-003	5	..........a	-327.66
	1108	221.8	1.10129E-001	-5.07067E-008	0.00000E+000	1.10000E-001	1.02749E-003	5	..........a	-327.66
	1109	222	1.00135E-001	-4.94634E-008	0.00000E+000	1.00000E-001	1.00279E-003	5	..........a	-327.66
	1110	222.2	9.00910E-002	-4.84000E-008	0.00000E+000	9.00000E-002	1.00439E-003	5	..........a	-327.66
	1111	222.4	8.00385E-002	-4.76060E-008	0.00000E+000	8.00000E-002	1.01939E-003	5	..........a	-327.66
	1112	222.6	7.00411E-002	-4.71386E-008	0.00000E+000	7.00000E-002	1.02229E-003	5	..........a	-327.66
	1113	222.8	6.01269E-002	-4.69213E-008	0.00000E+000	6.00000E-002	1.01209E-003	5	..........a	-327.66
	1114	223	5.00612E-002	-4.69402E-008	0.00000E+000	5.00000E-002	1.02179E-003	5	..........a	-327.66
	1115	223.2	4.01323E-002	-4.71451E-008	0.00000E+000	4.00000E-002	1.00559E-003	5	..........a	-327.66
	1116	223.4	3.00659E-002	-4.75173E-008	0.00000E+000	3.00000E-002	1.03759E-003	5	..........a	-327.66
	1117	223.6	2.01597E-002	-4.81991E-008	0.00000E+000	2.00000E-002	1.00819E-003	5	..........a	-327.66
	1118	223.8	1.01148E-002	-4.87459E-008	0.00000E+000	1.00000E-002	1.01609E-003	5	..........a	-327.66
	1119	224	3.51417E-005	-4.91113E-008	0.00000E+000	7.45058E-009	1.03009E-003	5	..........a	-327.66
	1120	224.2	-9.86361E-003	-4.93214E-008	0.00000E+000	-1.00000E-002	1.00239E-003	5	..........a	-327.66