Folder: GamryParser/example_project/raw_outputs (part 9)

File: 20240424_H_GM0016_HL03_E02_CV50K.DTA
EXPLAIN
TAG	CV
TITLE	LABEL	Cyclic Voltammetry	Test &Identifier
DATE	LABEL	4/24/2024	Date
TIME	LABEL	17:07:40	Time
NOTES	NOTES	1	&Notes...

PSTAT	PSTAT	REF600P-43058	Potentiostat
VINIT	POTEN	0.00000E+000	T	Initial &E (V)
VLIMIT1	POTEN	-6.00000E-001	F	Scan Limit &1 (V)
VLIMIT2	POTEN	8.00000E-001	F	Scan Limit &2 (V)
VFINAL	POTEN	0.00000E+000	T	Final &E (V)
SCANRATE	QUANT	4.99999E+004	&Scan Rate (mV/s)
STEPSIZE	QUANT	1.00000E+001	St&ep Size (mV)
CYCLES	IQUANT	10	C&ycles (#)
IMODE	SELECTOR	0	I/E Range &Mode
IRANGE	QUANT	1.00000E-005	&Max Current (mA)
AREA	QUANT	1.00000E+000	Electrode &Area (cm^2)
ELECTRODETYPE	SELECTOR	0	Electrode Type
STRIPPING	TOGGLE	F	Used for Stripping
POLARITY	TOGGLE	F	Signal Polarity
CONDIT	TWOPARAM	F	1.50000E+001	0.00000E+000	Conditionin&g	Time(s)	E(V)
DELAY	TWOPARAM	T	1.00000E+001	0.00000E+000	Init. De&lay	Time(s)	Stab.(mV/s)
EQDELAY	QUANT	1.00000E+001	Equil. &Time (s)
IRCOMP	SELECTOR	0	IRCom&p
PFCOR	QUANT	5.00000E+001	PF Corr. (ohm)
SAMPLINGMODE	SELECTOR	1	Sampling &Mode
OCVCURVE	TABLE	39
	Pt	T	Vf	Vm	Ach	Over	Temp
	#	s	V vs. Ref.	V	V	bits	deg C
	0	0.258333	-7.35676E-002	-7.35676E-002	2.21592E-004	..........a	-327.66
	1	0.516667	-7.35755E-002	-7.39850E-002	2.21859E-004	..........a	-327.66
	2	0.775	-7.36250E-002	-7.44041E-002	2.33526E-004	..........a	-327.66
	3	1.03333	-7.37665E-002	-7.48170E-002	2.24126E-004	..........a	-327.66
	4	1.29167	-7.40236E-002	-7.52253E-002	2.35392E-004	..........a	-327.66
	5	1.55	-7.43727E-002	-7.56366E-002	2.15059E-004	..........a	-327.66
	6	1.80833	-7.47705E-002	-7.60371E-002	2.21326E-004	..........a	-327.66
	7	2.06667	-7.51837E-002	-7.64403E-002	2.27126E-004	..........a	-327.66
	8	2.325	-7.55964E-002	-7.68418E-002	2.27726E-004	..........a	-327.66
	9	2.58333	-7.60044E-002	-7.72424E-002	2.28326E-004	..........a	-327.66
	10	2.84167	-7.64084E-002	-7.76365E-002	2.31659E-004	..........a	-327.66
	11	3.1	-7.68098E-002	-7.80441E-002	2.12126E-004	..........a	-327.66
	12	3.35833	-7.72097E-002	-7.84266E-002	2.25526E-004	..........a	-327.66
	13	3.61667	-7.76081E-002	-7.88199E-002	2.34592E-004	..........a	-327.66
	14	3.875	-7.80042E-002	-7.92100E-002	2.25459E-004	..........a	-327.66
	15	4.13333	-7.83976E-002	-7.95961E-002	2.30792E-004	..........a	-327.66
	16	4.39167	-7.87886E-002	-7.99832E-002	2.30259E-004	..........a	-327.66
	17	4.65	-7.91778E-002	-8.03633E-002	2.22326E-004	..........a	-327.66
	18	4.90833	-7.95650E-002	-8.07439E-002	2.22726E-004	..........a	-327.66
	19	5.16667	-7.99499E-002	-8.11182E-002	2.18259E-004	..........a	-327.66
	20	5.425	-8.03321E-002	-8.14928E-002	2.29126E-004	..........a	-327.66
	21	5.68333	-8.07113E-002	-8.18614E-002	2.42926E-004	..........a	-327.66
	22	5.94167	-8.10876E-002	-8.22338E-002	2.30592E-004	..........a	-327.66
	23	6.2	-8.14613E-002	-8.25961E-002	2.20926E-004	..........a	-327.66
	24	6.45833	-8.18324E-002	-8.29613E-002	2.27792E-004	..........a	-327.66
	25	6.71667	-8.22011E-002	-8.33235E-002	2.31792E-004	..........a	-327.66
	26	6.975	-8.25674E-002	-8.36822E-002	2.18459E-004	..........a	-327.66
	27	7.23333	-8.29314E-002	-8.40370E-002	2.18326E-004	..........a	-327.66
	28	7.49167	-8.32930E-002	-8.43930E-002	2.26792E-004	..........a	-327.66
	29	7.75	-8.36521E-002	-8.47475E-002	2.34392E-004	..........a	-327.66
	30	8.00833	-8.40091E-002	-8.50970E-002	2.33059E-004	..........a	-327.66
	31	8.26667	-8.43641E-002	-8.54400E-002	2.31526E-004	..........a	-327.66
	32	8.525	-8.47166E-002	-8.57780E-002	2.26592E-004	..........a	-327.66
	33	8.78333	-8.50654E-002	-8.61216E-002	2.21126E-004	..........a	-327.66
	34	9.04167	-8.54106E-002	-8.64603E-002	2.22259E-004	..........a	-327.66
	35	9.3	-8.57529E-002	-8.67940E-002	2.28926E-004	..........a	-327.66
	36	9.5583	-8.60930E-002	-8.71231E-002	2.34859E-004	..........a	-327.66
	37	9.8167	-8.64304E-002	-8.74461E-002	2.29726E-004	..........a	-327.66
	38	10.075	-8.67642E-002	-8.77705E-002	2.25059E-004	..........a	-327.66
EOC	QUANT	-0.0867642	Open Circuit (V)
PSTATMODEL	IQUANT	7	Pstat Model
PSTATSECTION	LABEL	REF600P-43058	Pstat Section
PSTATSERIALNO	LABEL	43058	Pstat Serial Number
CTRLMODE	IQUANT	1	Control Mode
ELECTROMETER	IQUANT	0	RE=0 or CS=1
IESTAB	IQUANT	2	I/E Stability
CASPEED	IQUANT	4	Control Amp Speed
CONVENTION	IQUANT	1	Current Convention
ICHRANGE	IQUANT	2	Ich Range
ICHRANGEMODE	TOGGLE	F	Ich Auto Range
ICHOFFSETENABLE	TOGGLE	F	Ich Offset Enable
ICHOFFSET	QUANT	0	Ich Offset (V)
ICHFILTER	IQUANT	1	Ich Filter
VCHRANGE	IQUANT	2	Vch Range
VCHRANGEMODE	TOGGLE	F	Vch Auto Range
VCHOFFSETENABLE	TOGGLE	F	Vch Offset Enable
VCHOFFSET	QUANT	0	Vch Offset (V)
VCHFILTER	IQUANT	1	Vch Filter
ACHRANGE	IQUANT	2	Ach Range
ACHOFFSETENABLE	TOGGLE	F	Ach Offset Enable
ACHOFFSET	QUANT	0	Ach Offset (V)
ACHFILTER	IQUANT	1	Ach Filter
IERANGELOWERLIMIT	IQUANT	1	I/E Range Lower Limit
IERANGEMODE	TOGGLE	T	I/E AutoRange
IERANGE	IQUANT	4	I/E Range
POSFEEDENABLE	TOGGLE	F	Positive Feedback IR Comp
POSFEEDRESISTANCE	QUANT	0	Positive Feedback Resistance (ohm)
ACHSELECT	IQUANT	4	Ach Select
SENSECABLEID	IQUANT	7	Sense Cable ID
PWRCABLEID	IQUANT	7	Power Cable ID
DCCALDATE	LABEL	3/22/2024	DC Calibration Date
ACCALDATE	LABEL	3/22/2024	AC Calibration Date
THERMOSELECT	IQUANT	1	Thermo Select
FRAMEWORKVERSION	LABEL	7.8.4	Framework Version
INSTRUMENTVERSION	LABEL	4.42	Instrument Version
CURVE1	TABLE
	Pt	T	Vf	Im	Vu	Sig	Ach	IERange	Over	Temp
	#	s	V vs. Ref.	A	V	V	V	#	bits	deg C
	0	0.0002	-8.67529E-002	2.05000E-007	0.00000E+000	-8.67500E-002	-4.18408E-004	8	..........a	-327.66
	2	0.0006	-1.06753E-001	-1.32506E-006	0.00000E+000	-1.06750E-001	-3.18408E-004	8	..........a	-327.66
	4	0.001	-1.26753E-001	-2.30510E-006	0.00000E+000	-1.26750E-001	8.15923E-005	8	..........a	-327.66
	6	0.0014	-1.46553E-001	-3.11513E-006	0.00000E+000	-1.46750E-001	8.15923E-005	8	..........a	-327.66
	8	0.0018	-1.66753E-001	-3.53514E-006	0.00000E+000	-1.66750E-001	-3.18408E-004	8	..........a	-327.66
	10	0.0022	-1.86753E-001	-4.00516E-006	0.00000E+000	-1.86750E-001	8.15923E-005	8	..........a	-327.66
	12	0.0026	-2.06653E-001	-4.38518E-006	0.00000E+000	-2.06750E-001	8.15923E-005	8	..........a	-327.66
	14	0.003	-2.26653E-001	-4.73519E-006	0.00000E+000	-2.26750E-001	8.15923E-005	8	..........a	-327.66
	16	0.0034	-2.46753E-001	-4.96520E-006	0.00000E+000	-2.46750E-001	8.15923E-005	8	..........a	-327.66
	18	0.0038	-2.66753E-001	-5.22521E-006	0.00000E+000	-2.66750E-001	8.15923E-005	8	..........a	-327.66
	20	0.0042	-2.86753E-001	-5.49522E-006	0.00000E+000	-2.86750E-001	8.15923E-005	8	..........a	-327.66
	22	0.0046	-3.06853E-001	-5.71523E-006	0.00000E+000	-3.06750E-001	8.15923E-005	8	..........a	-327.66
	24	0.005	-3.26753E-001	-5.92523E-006	0.00000E+000	-3.26750E-001	8.15923E-005	8	..........a	-327.66
	26	0.0054	-3.46753E-001	-6.18524E-006	0.00000E+000	-3.46750E-001	8.15923E-005	8	..........a	-327.66
	28	0.0058	-3.66753E-001	-6.41525E-006	0.00000E+000	-3.66750E-001	8.15923E-005	8	..........a	-327.66
	30	0.0062	-3.86753E-001	-6.66526E-006	0.00000E+000	-3.86750E-001	8.15923E-005	8	..........a	-327.66
	32	0.0066	-4.06753E-001	-6.84527E-006	0.00000E+000	-4.06750E-001	8.15923E-005	8	..........a	-327.66
	34	0.007	-4.26653E-001	-7.10528E-006	0.00000E+000	-4.26750E-001	8.15923E-005	8	..........a	-327.66
	36	0.0074	-4.46253E-001	-7.31529E-006	0.00000E+000	-4.46750E-001	8.15923E-005	8	..........a	-327.66
[...]
	2765	0.5532	2.60147E-001	-1.09954E-005	0.00000E+000	2.60000E-001	8.15923E-005	8	..........a	-327.66
	2766	0.5534	2.49947E-001	-1.12354E-005	0.00000E+000	2.50000E-001	-2.18408E-004	8	..........a	-327.66
	2767	0.5536	2.40047E-001	-1.14654E-005	0.00000E+000	2.40000E-001	8.15923E-005	8	..........a	-327.66
	2768	0.5538	2.30047E-001	-1.17355E-005	0.00000E+000	2.30000E-001	8.15923E-005	8	..........a	-327.66
	2769	0.554	2.20047E-001	-1.19355E-005	0.00000E+000	2.20000E-001	8.15923E-005	8	..........a	-327.66
	2770	0.5542	2.09947E-001	-1.22055E-005	0.00000E+000	2.10000E-001	8.15923E-005	8	..........a	-327.66
	2771	0.5544	2.00047E-001	-1.24055E-005	0.00000E+000	2.00000E-001	8.15923E-005	8	..........a	-327.66
	2772	0.5546	1.89947E-001	-1.26355E-005	0.00000E+000	1.90000E-001	8.15923E-005	8	..........a	-327.66
	2773	0.5548	1.80047E-001	-1.28355E-005	0.00000E+000	1.80000E-001	8.15923E-005	8	..........a	-327.66
	2774	0.555	1.70047E-001	-1.30455E-005	0.00000E+000	1.70000E-001	8.15923E-005	8	..........a	-327.66
	2775	0.5552	1.59947E-001	-1.32055E-005	0.00000E+000	1.60000E-001	8.15923E-005	8	..........a	-327.66
	2776	0.5554	1.50047E-001	-1.33555E-005	0.00000E+000	1.50000E-001	8.15923E-005	8	..........a	-327.66
	2777	0.5556	1.40147E-001	-1.35155E-005	0.00000E+000	1.40000E-001	8.15923E-005	8	..........a	-327.66
	2778	0.5558	1.30047E-001	-1.36755E-005	0.00000E+000	1.30000E-001	8.15923E-005	8	..........a	-327.66
	2779	0.556	1.20197E-001	-1.38355E-005	0.00000E+000	1.20000E-001	8.15923E-005	8	..........a	-327.66
	2780	0.5562	1.10047E-001	-1.38855E-005	0.00000E+000	1.10000E-001	8.15923E-005	8	..........a	-327.66
	2781	0.5564	1.00147E-001	-1.40855E-005	0.00000E+000	1.00000E-001	8.15923E-005	8	..........a	-327.66
	2782	0.5566	9.00471E-002	-1.42356E-005	0.00000E+000	9.00000E-002	8.15923E-005	8	..........a	-327.66
	2783	0.5568	7.99471E-002	-1.43356E-005	0.00000E+000	8.00000E-002	8.15923E-005	8	..........a	-327.66
	2784	0.557	7.00471E-002	-1.44556E-005	0.00000E+000	7.00000E-002	8.15923E-005	8	..........a	-327.66
	2785	0.5572	6.01471E-002	-1.45156E-005	0.00000E+000	6.00000E-002	8.15923E-005	8	..........a	-327.66
	2786	0.5574	4.99471E-002	-1.45956E-005	0.00000E+000	5.00000E-002	-2.18408E-004	8	..........a	-327.66
	2787	0.5576	3.99471E-002	-1.47756E-005	0.00000E+000	4.00000E-002	-3.18408E-004	8	..........a	-327.66
	2788	0.5578	3.00471E-002	-1.47756E-005	0.00000E+000	3.00000E-002	8.15923E-005	8	..........a	-327.66
	2789	0.558	2.01471E-002	-1.48356E-005	0.00000E+000	2.00000E-002	8.15923E-005	8	..........a	-327.66
	2790	0.5582	1.00471E-002	-1.48856E-005	0.00000E+000	1.00000E-002	-2.18408E-004	8	..........a	-327.66
	2791	0.5584	2.47114E-004	-1.49456E-005	0.00000E+000	7.45058E-009	8.15923E-005	8	..........a	-327.66
	2792	0.5586	-9.95289E-003	-1.49956E-005	0.00000E+000	-1.00000E-002	8.15923E-005	8	..........a	-327.66
	2793	0.5588	-1.99529E-002	-1.49956E-005	0.00000E+000	-2.00000E-002	-3.18408E-004	8	..........a	-327.66
	2794	0.559	-2.99529E-002	-1.50456E-005	0.00000E+000	-3.00000E-002	-3.18408E-004	8	..........a	-327.66
	2795	0.5592	-4.00529E-002	-1.50056E-005	0.00000E+000	-4.00000E-002	8.15923E-005	8	..........a	-327.66
	2796	0.5594	-4.97529E-002	-1.50756E-005	0.00000E+000	-5.00000E-002	8.15923E-005	8	..........a	-327.66
	2797	0.5596	-5.97529E-002	-1.50756E-005	0.00000E+000	-6.00000E-002	8.15923E-005	8	..........a	-327.66
	2798	0.5598	-7.00529E-002	-1.50756E-005	0.00000E+000	-7.00000E-002	8.15923E-005	8	..........a	-327.66
	2799	0.56	-7.99529E-002	-1.50056E-005	0.00000E+000	-8.00000E-002	8.15923E-005	8	..........a	-327.66
	2800	0.5602	-8.99529E-002	-1.49956E-005	0.00000E+000	-9.00000E-002	8.15923E-005	8	..........a	-327.66

File: 20240424_O_GM0016_HL03_E04_CV50.DTA
EXPLAIN
TAG	CV
TITLE	LABEL	Cyclic Voltammetry	Test &Identifier
DATE	LABEL	4/24/2024	Date
TIME	LABEL	17:32:48	Time
NOTES	NOTES	1	&Notes...

PSTAT	PSTAT	REF600P-43058	Potentiostat
VINIT	POTEN	0.00000E+000	T	Initial &E (V)
VLIMIT1	POTEN	-6.00000E-001	F	Scan Limit &1 (V)
VLIMIT2	POTEN	8.00000E-001	F	Scan Limit &2 (V)
VFINAL	POTEN	0.00000E+000	T	Final &E (V)
SCANRATE	QUANT	4.99999E+001	&Scan Rate (mV/s)
STEPSIZE	QUANT	1.00000E+001	St&ep Size (mV)
CYCLES	IQUANT	4	C&ycles (#)
IMODE	SELECTOR	0	I/E Range &Mode
IRANGE	QUANT	1.00000E-005	&Max Current (mA)
AREA	QUANT	1.00000E+000	Electrode &Area (cm^2)
ELECTRODETYPE	SELECTOR	0	Electrode Type
STRIPPING	TOGGLE	F	Used for Stripping
POLARITY	TOGGLE	F	Signal Polarity
CONDIT	TWOPARAM	F	1.50000E+001	0.00000E+000	Conditionin&g	Time(s)	E(V)
DELAY	TWOPARAM	T	1.00000E+001	0.00000E+000	Init. De&lay	Time(s)	Stab.(mV/s)
EQDELAY	QUANT	1.00000E+001	Equil. &Time (s)
IRCOMP	SELECTOR	0	IRCom&p
PFCOR	QUANT	5.00000E+001	PF Corr. (ohm)
SAMPLINGMODE	SELECTOR	1	Sampling &Mode
OCVCURVE	TABLE	39
	Pt	T	Vf	Vm	Ach	Over	Temp
	#	s	V vs. Ref.	V	V	bits	deg C
	0	0.258333	-1.54465E-001	-1.54465E-001	2.13726E-004	..........a	-327.66
	1	0.516667	-1.54466E-001	-1.54500E-001	2.33126E-004	..........a	-327.66
	2	0.775	-1.54470E-001	-1.54542E-001	2.04926E-004	..........a	-327.66
	3	1.03333	-1.54483E-001	-1.54580E-001	2.26859E-004	..........a	-327.66
	4	1.29167	-1.54506E-001	-1.54625E-001	2.10792E-004	..........a	-327.66
	5	1.55	-1.54539E-001	-1.54661E-001	2.29526E-004	..........a	-327.66
	6	1.80833	-1.54578E-001	-1.54715E-001	2.09926E-004	..........a	-327.66
	7	2.06667	-1.54620E-001	-1.54747E-001	2.24859E-004	..........a	-327.66
	8	2.325	-1.54663E-001	-1.54817E-001	2.05459E-004	..........a	-327.66
	9	2.58333	-1.54708E-001	-1.54856E-001	2.10659E-004	..........a	-327.66
	10	2.84167	-1.54755E-001	-1.54902E-001	2.29726E-004	..........a	-327.66
	11	3.1	-1.54804E-001	-1.54960E-001	2.20792E-004	..........a	-327.66
	12	3.35833	-1.54853E-001	-1.55001E-001	2.08926E-004	..........a	-327.66
	13	3.61667	-1.54902E-001	-1.55050E-001	2.34059E-004	..........a	-327.66
	14	3.875	-1.54951E-001	-1.55101E-001	2.12326E-004	..........a	-327.66
	15	4.13333	-1.54999E-001	-1.55151E-001	2.16859E-004	..........a	-327.66
	16	4.39167	-1.55048E-001	-1.55203E-001	2.13659E-004	..........a	-327.66
	17	4.65	-1.55098E-001	-1.55252E-001	2.10459E-004	..........a	-327.66
	18	4.90833	-1.55148E-001	-1.55305E-001	2.31326E-004	..........a	-327.66
	19	5.16667	-1.55199E-001	-1.55361E-001	2.23326E-004	..........a	-327.66
	20	5.425	-1.55250E-001	-1.55408E-001	2.13392E-004	..........a	-327.66
	21	5.68333	-1.55302E-001	-1.55462E-001	2.24926E-004	..........a	-327.66
	22	5.94167	-1.55354E-001	-1.55518E-001	2.14859E-004	..........a	-327.66
	23	6.2	-1.55407E-001	-1.55564E-001	2.07326E-004	..........a	-327.66
	24	6.45833	-1.55459E-001	-1.55617E-001	2.23992E-004	..........a	-327.66
	25	6.71667	-1.55511E-001	-1.55674E-001	2.24526E-004	..........a	-327.66
	26	6.975	-1.55562E-001	-1.55716E-001	2.22792E-004	..........a	-327.66
	27	7.23333	-1.55614E-001	-1.55771E-001	2.21459E-004	..........a	-327.66
	28	7.49167	-1.55665E-001	-1.55825E-001	2.10792E-004	..........a	-327.66
	29	7.75	-1.55716E-001	-1.55867E-001	2.19726E-004	..........a	-327.66
	30	8.00833	-1.55767E-001	-1.55924E-001	2.15726E-004	..........a	-327.66
	31	8.26667	-1.55817E-001	-1.55969E-001	2.12392E-004	..........a	-327.66
	32	8.525	-1.55867E-001	-1.56017E-001	2.28259E-004	..........a	-327.66
	33	8.78333	-1.55917E-001	-1.56068E-001	2.19592E-004	..........a	-327.66
	34	9.04167	-1.55966E-001	-1.56108E-001	2.24126E-004	..........a	-327.66
	35	9.3	-1.56014E-001	-1.56156E-001	2.18992E-004	..........a	-327.66
	36	9.5583	-1.56060E-001	-1.56187E-001	2.25259E-004	..........a	-327.66
	37	9.8167	-1.56105E-001	-1.56237E-001	2.18326E-004	..........a	-327.66
	38	10.075	-1.56148E-001	-1.56271E-001	2.29459E-004	..........a	-327.66
EOC	QUANT	-0.1561476	Open Circuit (V)
PSTATMODEL	IQUANT	7	Pstat Model
PSTATSECTION	LABEL	REF600P-43058	Pstat Section
PSTATSERIALNO	LABEL	43058	Pstat Serial Number
CTRLMODE	IQUANT	1	Control Mode
ELECTROMETER	IQUANT	0	RE=0 or CS=1
IESTAB	IQUANT	2	I/E Stability
CASPEED	IQUANT	4	Control Amp Speed
CONVENTION	IQUANT	1	Current Convention
ICHRANGE	IQUANT	2	Ich Range
ICHRANGEMODE	TOGGLE	F	Ich Auto Range
ICHOFFSETENABLE	TOGGLE	F	Ich Offset Enable
ICHOFFSET	QUANT	0	Ich Offset (V)
ICHFILTER	IQUANT	2	Ich Filter
VCHRANGE	IQUANT	2	Vch Range
VCHRANGEMODE	TOGGLE	F	Vch Auto Range
VCHOFFSETENABLE	TOGGLE	F	Vch Offset Enable
VCHOFFSET	QUANT	0	Vch Offset (V)
VCHFILTER	IQUANT	2	Vch Filter
ACHRANGE	IQUANT	2	Ach Range
ACHOFFSETENABLE	TOGGLE	F	Ach Offset Enable
ACHOFFSET	QUANT	0	Ach Offset (V)
ACHFILTER	IQUANT	1	Ach Filter
IERANGELOWERLIMIT	IQUANT	1	I/E Range Lower Limit
IERANGEMODE	TOGGLE	T	I/E AutoRange
IERANGE	IQUANT	4	I/E Range
POSFEEDENABLE	TOGGLE	F	Positive Feedback IR Comp
POSFEEDRESISTANCE	QUANT	0	Positive Feedback Resistance (ohm)
ACHSELECT	IQUANT	4	Ach Select
SENSECABLEID	IQUANT	7	Sense Cable ID
PWRCABLEID	IQUANT	7	Power Cable ID
DCCALDATE	LABEL	3/22/2024	DC Calibration Date
ACCALDATE	LABEL	3/22/2024	AC Calibration Date
THERMOSELECT	IQUANT	1	Thermo Select
FRAMEWORKVERSION	LABEL	7.8.4	Framework Version
INSTRUMENTVERSION	LABEL	4.42	Instrument Version
CURVE1	TABLE
	Pt	T	Vf	Im	Vu	Sig	Ach	IERange	Over	Temp
	#	s	V vs. Ref.	A	V	V	V	#	bits	deg C
	0	0.2	-1.56132E-001	4.29012E-010	0.00000E+000	-1.56150E-001	9.64392E-004	5	..........a	-327.66
	2	0.6	-1.76118E-001	-3.23711E-009	0.00000E+000	-1.76150E-001	9.76492E-004	5	..........a	-327.66
	4	1	-1.96122E-001	-5.81849E-009	0.00000E+000	-1.96150E-001	9.80992E-004	5	..........a	-327.66
	6	1.4	-2.15977E-001	-8.16054E-009	0.00000E+000	-2.16150E-001	9.60892E-004	5	..........a	-327.66
	8	1.8	-2.36077E-001	-1.04238E-008	0.00000E+000	-2.36150E-001	9.57792E-004	5	..........a	-327.66
	10	2.2	-2.56091E-001	-1.25436E-008	0.00000E+000	-2.56150E-001	9.54192E-004	5	..........a	-327.66
	12	2.6	-2.76062E-001	-1.46578E-008	0.00000E+000	-2.76150E-001	9.68492E-004	5	..........a	-327.66
	14	3	-2.96071E-001	-1.67184E-008	0.00000E+000	-2.96150E-001	9.69592E-004	5	..........a	-327.66
	16	3.4	-3.16068E-001	-1.87623E-008	0.00000E+000	-3.16150E-001	9.66792E-004	5	..........a	-327.66
	18	3.8	-3.36073E-001	-2.07933E-008	0.00000E+000	-3.36150E-001	9.71792E-004	5	..........a	-327.66
	20	4.2	-3.56075E-001	-2.27503E-008	0.00000E+000	-3.56150E-001	9.54892E-004	5	..........a	-327.66
	22	4.6	-3.76044E-001	-2.47121E-008	0.00000E+000	-3.76150E-001	9.64092E-004	5	..........a	-327.66
	24	5	-3.96071E-001	-2.66551E-008	0.00000E+000	-3.96150E-001	9.76092E-004	5	..........a	-327.66
	26	5.4	-4.16033E-001	-2.86055E-008	0.00000E+000	-4.16150E-001	9.78192E-004	5	..........a	-327.66
	28	5.8	-4.36048E-001	-3.05169E-008	0.00000E+000	-4.36150E-001	9.68492E-004	5	..........a	-327.66
	30	6.2	-4.56047E-001	-3.24208E-008	0.00000E+000	-4.56150E-001	9.67392E-004	5	..........a	-327.66
	32	6.6	-4.75987E-001	-3.43154E-008	0.00000E+000	-4.76150E-001	9.78392E-004	5	..........a	-327.66
	34	7	-4.95995E-001	-3.62533E-008	0.00000E+000	-4.96150E-001	9.63492E-004	5	..........a	-327.66
	36	7.4	-5.16017E-001	-3.82052E-008	0.00000E+000	-5.16150E-001	9.67192E-004	5	..........a	-327.66
	38	7.8	-5.36027E-001	-4.02419E-008	0.00000E+000	-5.36150E-001	9.84992E-004	5	..........a	-327.66
[...]
	1085	217.2	1.90116E-001	-2.49946E-008	0.00000E+000	1.90000E-001	9.79892E-004	5	..........a	-327.66
	1086	217.4	1.80119E-001	-2.53137E-008	0.00000E+000	1.80000E-001	9.54992E-004	5	..........a	-327.66
	1087	217.6	1.70099E-001	-2.54783E-008	0.00000E+000	1.70000E-001	9.82292E-004	5	..........a	-327.66
	1088	217.8	1.60089E-001	-2.54612E-008	0.00000E+000	1.60000E-001	9.65292E-004	5	..........a	-327.66
	1089	218	1.50100E-001	-2.52896E-008	0.00000E+000	1.50000E-001	9.86592E-004	5	..........a	-327.66
	1090	218.2	1.40128E-001	-2.49819E-008	0.00000E+000	1.40000E-001	9.70592E-004	5	..........a	-327.66
	1091	218.4	1.30098E-001	-2.45758E-008	0.00000E+000	1.30000E-001	9.83192E-004	5	..........a	-327.66
	1092	218.6	1.20098E-001	-2.41166E-008	0.00000E+000	1.20000E-001	9.82292E-004	5	..........a	-327.66
	1093	218.8	1.10114E-001	-2.35813E-008	0.00000E+000	1.10000E-001	9.76192E-004	5	..........a	-327.66
	1094	219	1.00125E-001	-2.31104E-008	0.00000E+000	1.00000E-001	9.69892E-004	5	..........a	-327.66
	1095	219.2	9.00856E-002	-2.26222E-008	0.00000E+000	9.00000E-002	9.70392E-004	5	..........a	-327.66
	1096	219.4	8.00395E-002	-2.22266E-008	0.00000E+000	8.00000E-002	9.92192E-004	5	..........a	-327.66
	1097	219.6	7.00352E-002	-2.19891E-008	0.00000E+000	7.00000E-002	9.86792E-004	5	..........a	-327.66
	1098	219.8	6.01083E-002	-2.18373E-008	0.00000E+000	6.00000E-002	9.62292E-004	5	..........a	-327.66
	1099	220	5.00706E-002	-2.17753E-008	0.00000E+000	5.00000E-002	9.80592E-004	5	..........a	-327.66
	1100	220.2	4.01560E-002	-2.17631E-008	0.00000E+000	4.00000E-002	9.80792E-004	5	..........a	-327.66
	1101	220.4	3.00833E-002	-2.18323E-008	0.00000E+000	3.00000E-002	9.93192E-004	5	..........a	-327.66
	1102	220.6	2.01790E-002	-2.19607E-008	0.00000E+000	2.00000E-002	9.69092E-004	5	..........a	-327.66
	1103	220.8	1.01067E-002	-2.21666E-008	0.00000E+000	1.00000E-002	9.60392E-004	5	..........a	-327.66
	1104	221	1.46916E-005	-2.24791E-008	0.00000E+000	7.45058E-009	9.89792E-004	5	..........a	-327.66
	1105	221.2	-9.88701E-003	-2.27818E-008	0.00000E+000	-1.00000E-002	9.79292E-004	5	..........a	-327.66
	1106	221.4	-1.99020E-002	-2.30801E-008	0.00000E+000	-2.00000E-002	9.65492E-004	5	..........a	-327.66
	1107	221.6	-2.99290E-002	-2.35448E-008	0.00000E+000	-3.00000E-002	9.65592E-004	5	..........a	-327.66
	1108	221.8	-3.99041E-002	-2.40376E-008	0.00000E+000	-4.00000E-002	9.78292E-004	5	..........a	-327.66
	1109	222	-4.98794E-002	-2.45315E-008	0.00000E+000	-5.00000E-002	9.74992E-004	5	..........a	-327.66
	1110	222.2	-5.98943E-002	-2.49247E-008	0.00000E+000	-6.00000E-002	9.59792E-004	5	..........a	-327.66
	1111	222.4	-6.98913E-002	-2.57550E-008	0.00000E+000	-7.00000E-002	9.80292E-004	5	..........a	-327.66
	1112	222.6	-7.99257E-002	-2.61900E-008	0.00000E+000	-8.00000E-002	9.86492E-004	5	..........a	-327.66
	1113	222.8	-8.99049E-002	-2.68297E-008	0.00000E+000	-9.00000E-002	9.71292E-004	5	..........a	-327.66
	1114	223	-9.98976E-002	-2.77131E-008	0.00000E+000	-1.00000E-001	9.58092E-004	5	..........a	-327.66
	1115	223.2	-1.09954E-001	-2.84135E-008	0.00000E+000	-1.10000E-001	9.91392E-004	5	..........a	-327.66
	1116	223.4	-1.19911E-001	-2.89451E-008	0.00000E+000	-1.20000E-001	9.70292E-004	5	..........a	-327.66
	1117	223.6	-1.29908E-001	-2.98050E-008	0.00000E+000	-1.30000E-001	9.74492E-004	5	..........a	-327.66
	1118	223.8	-1.39939E-001	-3.04257E-008	0.00000E+000	-1.40000E-001	9.56392E-004	5	..........a	-327.66
	1119	224	-1.49924E-001	-3.11725E-008	0.00000E+000	-1.50000E-001	9.83192E-004	5	..........a	-327.66
	1120	224.2	-1.59938E-001	-3.19862E-008	0.00000E+000	-1.60000E-001	9.84092E-004	5	..........a	-327.66