Folder: GamryParser/example_project/raw_outputs (part 7)

File: 20240321_ZZG_GM0016_HL03_E15_CV50.DTA
EXPLAIN
TAG	CV
TITLE	LABEL	Cyclic Voltammetry	Test &Identifier
DATE	LABEL	3/21/2024	Date
TIME	LABEL	19:50:03	Time
NOTES	NOTES	1	&Notes...

PSTAT	PSTAT	REF600P-43058	Potentiostat
VINIT	POTEN	0.00000E+000	T	Initial &E (V)
VLIMIT1	POTEN	-6.00000E-001	F	Scan Limit &1 (V)
VLIMIT2	POTEN	8.00000E-001	F	Scan Limit &2 (V)
VFINAL	POTEN	0.00000E+000	T	Final &E (V)
SCANRATE	QUANT	4.99999E+001	&Scan Rate (mV/s)
STEPSIZE	QUANT	1.00000E+001	St&ep Size (mV)
CYCLES	IQUANT	4	C&ycles (#)
IMODE	SELECTOR	1	I/E Range &Mode
IRANGE	QUANT	1.00000E-005	&Max Current (mA)
AREA	QUANT	1.00000E+000	Electrode &Area (cm^2)
ELECTRODETYPE	SELECTOR	0	Electrode Type
STRIPPING	TOGGLE	F	Used for Stripping
POLARITY	TOGGLE	F	Signal Polarity
CONDIT	TWOPARAM	F	1.50000E+001	0.00000E+000	Conditionin&g	Time(s)	E(V)
DELAY	TWOPARAM	T	1.00000E+001	0.00000E+000	Init. De&lay	Time(s)	Stab.(mV/s)
EQDELAY	QUANT	1.00000E+001	Equil. &Time (s)
IRCOMP	SELECTOR	0	IRCom&p
PFCOR	QUANT	5.00000E+001	PF Corr. (ohm)
SAMPLINGMODE	SELECTOR	1	Sampling &Mode
OCVCURVE	TABLE	39
	Pt	T	Vf	Vm	Ach	Over	Temp
	#	s	V vs. Ref.	V	V	bits	deg C
	0	0.258333	1.75018E-001	1.75018E-001	2.59156E-004	..........a	-327.66
	1	0.516667	1.75029E-001	1.75623E-001	2.67356E-004	..........a	-327.66
	2	0.775	1.75103E-001	1.76316E-001	2.79556E-004	..........a	-327.66
	3	1.03333	1.75319E-001	1.77074E-001	2.74689E-004	..........a	-327.66
	4	1.29167	1.75730E-001	1.77844E-001	2.68356E-004	..........a	-327.66
	5	1.55	1.76317E-001	1.78631E-001	2.74156E-004	..........a	-327.66
	6	1.80833	1.77019E-001	1.79430E-001	2.73489E-004	..........a	-327.66
	7	2.06667	1.77781E-001	1.80237E-001	2.51889E-004	..........a	-327.66
	8	2.325	1.78570E-001	1.81050E-001	2.60156E-004	..........a	-327.66
	9	2.58333	1.79370E-001	1.81857E-001	2.74489E-004	..........a	-327.66
	10	2.84167	1.80176E-001	1.82664E-001	2.76822E-004	..........a	-327.66
	11	3.1	1.80984E-001	1.83465E-001	2.63022E-004	..........a	-327.66
	12	3.35833	1.81792E-001	1.84262E-001	2.82022E-004	..........a	-327.66
	13	3.61667	1.82597E-001	1.85058E-001	2.73356E-004	..........a	-327.66
	14	3.875	1.83400E-001	1.85852E-001	2.87956E-004	..........a	-327.66
	15	4.13333	1.84199E-001	1.86647E-001	2.82956E-004	..........a	-327.66
	16	4.39167	1.84995E-001	1.87429E-001	2.89156E-004	..........a	-327.66
	17	4.65	1.85789E-001	1.88203E-001	2.64956E-004	..........a	-327.66
	18	4.90833	1.86578E-001	1.88985E-001	2.77622E-004	..........a	-327.66
	19	5.16667	1.87363E-001	1.89754E-001	2.69489E-004	..........a	-327.66
	20	5.425	1.88144E-001	1.90527E-001	2.59822E-004	..........a	-327.66
	21	5.68333	1.88920E-001	1.91297E-001	2.71556E-004	..........a	-327.66
	22	5.94167	1.89694E-001	1.92056E-001	2.84489E-004	..........a	-327.66
	23	6.2	1.90465E-001	1.92811E-001	2.74222E-004	..........a	-327.66
	24	6.45833	1.91231E-001	1.93562E-001	2.47089E-004	..........a	-327.66
	25	6.71667	1.91993E-001	1.94304E-001	2.65756E-004	..........a	-327.66
	26	6.975	1.92749E-001	1.95044E-001	2.66556E-004	..........a	-327.66
	27	7.23333	1.93499E-001	1.95785E-001	2.68356E-004	..........a	-327.66
	28	7.49167	1.94244E-001	1.96506E-001	2.62489E-004	..........a	-327.66
	29	7.75	1.94985E-001	1.97239E-001	2.68422E-004	..........a	-327.66
	30	8.00833	1.95720E-001	1.97956E-001	2.59556E-004	..........a	-327.66
	31	8.26667	1.96451E-001	1.98672E-001	2.54556E-004	..........a	-327.66
	32	8.525	1.97176E-001	1.99385E-001	2.77956E-004	..........a	-327.66
	33	8.78333	1.97898E-001	2.00102E-001	2.56556E-004	..........a	-327.66
	34	9.04167	1.98615E-001	2.00810E-001	2.66089E-004	..........a	-327.66
	35	9.3	1.99330E-001	2.01508E-001	2.72756E-004	..........a	-327.66
	36	9.5583	2.00042E-001	2.02208E-001	2.60756E-004	..........a	-327.66
	37	9.8167	2.00749E-001	2.02900E-001	2.60556E-004	..........a	-327.66
	38	10.075	2.01452E-001	2.03594E-001	2.68422E-004	..........a	-327.66
EOC	QUANT	0.2014519	Open Circuit (V)
PSTATMODEL	IQUANT	7	Pstat Model
PSTATSECTION	LABEL	REF600P-43058	Pstat Section
PSTATSERIALNO	LABEL	43058	Pstat Serial Number
CTRLMODE	IQUANT	1	Control Mode
ELECTROMETER	IQUANT	0	RE=0 or CS=1
IESTAB	IQUANT	2	I/E Stability
CASPEED	IQUANT	4	Control Amp Speed
CONVENTION	IQUANT	1	Current Convention
ICHRANGE	IQUANT	2	Ich Range
ICHRANGEMODE	TOGGLE	F	Ich Auto Range
ICHOFFSETENABLE	TOGGLE	F	Ich Offset Enable
ICHOFFSET	QUANT	0	Ich Offset (V)
ICHFILTER	IQUANT	2	Ich Filter
VCHRANGE	IQUANT	2	Vch Range
VCHRANGEMODE	TOGGLE	F	Vch Auto Range
VCHOFFSETENABLE	TOGGLE	F	Vch Offset Enable
VCHOFFSET	QUANT	0	Vch Offset (V)
VCHFILTER	IQUANT	2	Vch Filter
ACHRANGE	IQUANT	2	Ach Range
ACHOFFSETENABLE	TOGGLE	F	Ach Offset Enable
ACHOFFSET	QUANT	0	Ach Offset (V)
ACHFILTER	IQUANT	1	Ach Filter
IERANGELOWERLIMIT	IQUANT	1	I/E Range Lower Limit
IERANGEMODE	TOGGLE	F	I/E AutoRange
IERANGE	IQUANT	4	I/E Range
POSFEEDENABLE	TOGGLE	F	Positive Feedback IR Comp
POSFEEDRESISTANCE	QUANT	0	Positive Feedback Resistance (ohm)
ACHSELECT	IQUANT	4	Ach Select
SENSECABLEID	IQUANT	7	Sense Cable ID
PWRCABLEID	IQUANT	7	Power Cable ID
DCCALDATE	LABEL	12/18/2023	DC Calibration Date
ACCALDATE	LABEL	12/18/2023	AC Calibration Date
THERMOSELECT	IQUANT	1	Thermo Select
FRAMEWORKVERSION	LABEL	7.8.4	Framework Version
INSTRUMENTVERSION	LABEL	4.42	Instrument Version
CURVE1	TABLE
	Pt	T	Vf	Im	Vu	Sig	Ach	IERange	Over	Temp
	#	s	V vs. Ref.	A	V	V	V	#	bits	deg C
	0	0.2	2.01469E-001	1.72525E-011	0.00000E+000	2.01450E-001	1.04572E-003	4	..........a	-327.66
	3	0.8	1.71447E-001	-3.42235E-011	0.00000E+000	1.71450E-001	1.00912E-003	4	..........a	-327.66
	6	1.4	1.41579E-001	-5.14212E-011	0.00000E+000	1.41450E-001	1.00542E-003	4	..........a	-327.66
	9	2	1.11484E-001	-6.73518E-011	0.00000E+000	1.11450E-001	9.81122E-004	4	..........a	-327.66
	12	2.6	8.14290E-002	-7.82352E-011	0.00000E+000	8.14500E-002	1.03662E-003	4	..........a	-327.66
	15	3.2	5.14562E-002	-9.07457E-011	0.00000E+000	5.14500E-002	1.01822E-003	4	..........a	-327.66
	18	3.8	2.15748E-002	-1.02933E-010	0.00000E+000	2.14500E-002	1.00662E-003	4	..........a	-327.66
	21	4.4	-8.56411E-003	-1.14892E-010	0.00000E+000	-8.55000E-003	1.01182E-003	4	..........a	-327.66
	24	5	-3.85720E-002	-1.27761E-010	0.00000E+000	-3.85500E-002	1.01502E-003	4	..........a	-327.66
	27	5.6	-6.85580E-002	-1.41304E-010	0.00000E+000	-6.85500E-002	1.03872E-003	4	..........a	-327.66
	30	6.2	-9.84384E-002	-1.56704E-010	0.00000E+000	-9.85500E-002	1.03182E-003	4	..........a	-327.66
	33	6.8	-1.28592E-001	-1.74337E-010	0.00000E+000	-1.28550E-001	1.03642E-003	4	..........a	-327.66
	36	7.4	-1.58582E-001	-1.93846E-010	0.00000E+000	-1.58550E-001	1.02692E-003	4	..........a	-327.66
	39	8	-1.88537E-001	-2.14119E-010	0.00000E+000	-1.88550E-001	1.02602E-003	4	..........a	-327.66
	42	8.6	-2.18475E-001	-2.35269E-010	0.00000E+000	-2.18550E-001	1.04702E-003	4	..........a	-327.66
	45	9.2	-2.48532E-001	-2.60238E-010	0.00000E+000	-2.48550E-001	1.04152E-003	4	..........a	-327.66
	48	9.8	-2.78470E-001	-2.90653E-010	0.00000E+000	-2.78550E-001	1.00452E-003	4	..........a	-327.66
	51	10.4	-3.08529E-001	-3.10480E-010	0.00000E+000	-3.08550E-001	1.01012E-003	4	..........a	-327.66
	54	11	-3.38425E-001	-3.38798E-010	0.00000E+000	-3.38550E-001	1.01842E-003	4	..........a	-327.66
	57	11.6	-3.68534E-001	-3.69172E-010	0.00000E+000	-3.68550E-001	1.01522E-003	4	..........a	-327.66
	60	12.2	-3.98469E-001	-4.03572E-010	0.00000E+000	-3.98550E-001	1.00312E-003	4	..........a	-327.66
[...]
	1059	212	5.49959E-001	4.26614E-011	0.00000E+000	5.50000E-001	9.88922E-004	4	..........a	-327.66
	1060	212.2	5.39990E-001	3.18060E-011	0.00000E+000	5.40000E-001	1.02542E-003	4	..........a	-327.66
	1061	212.4	5.29961E-001	2.46977E-011	0.00000E+000	5.30000E-001	9.73122E-004	4	..........a	-327.66
	1062	212.6	5.19973E-001	1.57084E-011	0.00000E+000	5.20000E-001	9.98422E-004	4	..........a	-327.66
	1063	212.8	5.09932E-001	8.20711E-012	0.00000E+000	5.10000E-001	1.00432E-003	4	..........a	-327.66
	1064	213	4.99994E-001	-1.00024E-012	0.00000E+000	5.00000E-001	1.00592E-003	4	..........a	-327.66
	1065	213.2	4.89956E-001	-7.01147E-012	0.00000E+000	4.90000E-001	1.00302E-003	4	..........a	-327.66
	1066	213.4	4.79839E-001	-1.37237E-011	0.00000E+000	4.80000E-001	9.87822E-004	4	..........a	-327.66
	1067	213.6	4.69953E-001	-2.13610E-011	0.00000E+000	4.70000E-001	9.92022E-004	4	..........a	-327.66
	1068	213.8	4.60003E-001	-2.85943E-011	0.00000E+000	4.60000E-001	1.00552E-003	4	..........a	-327.66
	1069	214	4.49952E-001	-3.55226E-011	0.00000E+000	4.50000E-001	9.96522E-004	4	..........a	-327.66
	1070	214.2	4.39982E-001	-4.09738E-011	0.00000E+000	4.40000E-001	1.00642E-003	4	..........a	-327.66
	1071	214.4	4.29918E-001	-4.63100E-011	0.00000E+000	4.30000E-001	1.01262E-003	4	..........a	-327.66
	1072	214.6	4.20016E-001	-5.27872E-011	0.00000E+000	4.20000E-001	9.81522E-004	4	..........a	-327.66
	1073	214.8	4.09951E-001	-5.85105E-011	0.00000E+000	4.10000E-001	9.90122E-004	4	..........a	-327.66
	1074	215	3.99958E-001	-6.57557E-011	0.00000E+000	4.00000E-001	9.96622E-004	4	..........a	-327.66
	1075	215.2	3.89977E-001	-7.01189E-011	0.00000E+000	3.90000E-001	1.02492E-003	4	..........a	-327.66
	1076	215.4	3.80037E-001	-7.51541E-011	0.00000E+000	3.80000E-001	9.78322E-004	4	..........a	-327.66
	1077	215.6	3.69979E-001	-8.16173E-011	0.00000E+000	3.70000E-001	9.94722E-004	4	..........a	-327.66
	1078	215.8	3.59962E-001	-8.69775E-011	0.00000E+000	3.60000E-001	1.01232E-003	4	..........a	-327.66
	1079	216	3.49968E-001	-9.31608E-011	0.00000E+000	3.50000E-001	1.00962E-003	4	..........a	-327.66
	1080	216.2	3.40053E-001	-9.67869E-011	0.00000E+000	3.40000E-001	1.00902E-003	4	..........a	-327.66
	1081	216.4	3.30002E-001	-1.02519E-010	0.00000E+000	3.30000E-001	9.91222E-004	4	..........a	-327.66
	1082	216.6	3.20001E-001	-1.07061E-010	0.00000E+000	3.20000E-001	9.82622E-004	4	..........a	-327.66
	1083	216.8	3.09940E-001	-1.12759E-010	0.00000E+000	3.10000E-001	1.03032E-003	4	..........a	-327.66
	1084	217	3.00028E-001	-1.16649E-010	0.00000E+000	3.00000E-001	1.01132E-003	4	..........a	-327.66
	1085	217.2	2.89993E-001	-1.21162E-010	0.00000E+000	2.90000E-001	9.91022E-004	4	..........a	-327.66
	1086	217.4	2.79978E-001	-1.25610E-010	0.00000E+000	2.80000E-001	1.01872E-003	4	..........a	-327.66
	1087	217.6	2.69948E-001	-1.30665E-010	0.00000E+000	2.70000E-001	9.79322E-004	4	..........a	-327.66
	1088	217.8	2.60008E-001	-1.33766E-010	0.00000E+000	2.60000E-001	9.95122E-004	4	..........a	-327.66
	1089	218	2.49982E-001	-1.36788E-010	0.00000E+000	2.50000E-001	9.82522E-004	4	..........a	-327.66
	1090	218.2	2.39918E-001	-1.39734E-010	0.00000E+000	2.40000E-001	9.84222E-004	4	..........a	-327.66
	1091	218.4	2.29943E-001	-1.42947E-010	0.00000E+000	2.30000E-001	9.94322E-004	4	..........a	-327.66
	1092	218.6	2.19996E-001	-1.45819E-010	0.00000E+000	2.20000E-001	1.00182E-003	4	..........a	-327.66
	1093	218.8	2.09994E-001	-1.48095E-010	0.00000E+000	2.10000E-001	1.00842E-003	4	..........a	-327.66
	1094	219	2.00032E-001	-1.49884E-010	0.00000E+000	2.00000E-001	1.01922E-003	4	..........a	-327.66

File: 20240321_ZZH_GM0016_HL03_E15_CV50k.DTA
EXPLAIN
TAG	CV
TITLE	LABEL	Cyclic Voltammetry	Test &Identifier
DATE	LABEL	3/21/2024	Date
TIME	LABEL	19:54:25	Time
NOTES	NOTES	1	&Notes...

PSTAT	PSTAT	REF600P-43058	Potentiostat
VINIT	POTEN	0.00000E+000	T	Initial &E (V)
VLIMIT1	POTEN	-6.00000E-001	F	Scan Limit &1 (V)
VLIMIT2	POTEN	8.00000E-001	F	Scan Limit &2 (V)
VFINAL	POTEN	0.00000E+000	T	Final &E (V)
SCANRATE	QUANT	4.99999E+004	&Scan Rate (mV/s)
STEPSIZE	QUANT	1.00000E+001	St&ep Size (mV)
CYCLES	IQUANT	10	C&ycles (#)
IMODE	SELECTOR	1	I/E Range &Mode
IRANGE	QUANT	1.00000E-005	&Max Current (mA)
AREA	QUANT	1.00000E+000	Electrode &Area (cm^2)
ELECTRODETYPE	SELECTOR	0	Electrode Type
STRIPPING	TOGGLE	F	Used for Stripping
POLARITY	TOGGLE	F	Signal Polarity
CONDIT	TWOPARAM	F	1.50000E+001	0.00000E+000	Conditionin&g	Time(s)	E(V)
DELAY	TWOPARAM	T	1.00000E+001	0.00000E+000	Init. De&lay	Time(s)	Stab.(mV/s)
EQDELAY	QUANT	1.00000E+001	Equil. &Time (s)
IRCOMP	SELECTOR	0	IRCom&p
PFCOR	QUANT	5.00000E+001	PF Corr. (ohm)
SAMPLINGMODE	SELECTOR	1	Sampling &Mode
OCVCURVE	TABLE	39
	Pt	T	Vf	Vm	Ach	Over	Temp
	#	s	V vs. Ref.	V	V	bits	deg C
	0	0.258333	3.05964E-001	3.05964E-001	2.35956E-004	..........a	-327.66
	1	0.516667	3.05971E-001	3.06375E-001	2.42422E-004	..........a	-327.66
	2	0.775	3.06015E-001	3.06532E-001	2.48956E-004	..........a	-327.66
	3	1.03333	3.06126E-001	3.06756E-001	2.46689E-004	..........a	-327.66
	4	1.29167	3.06303E-001	3.07057E-001	2.36822E-004	..........a	-327.66
	5	1.55	3.06523E-001	3.07329E-001	2.54289E-004	..........a	-327.66
	6	1.80833	3.06768E-001	3.07576E-001	2.38556E-004	..........a	-327.66
	7	2.06667	3.07032E-001	3.08000E-001	2.55822E-004	..........a	-327.66
	8	2.325	3.07311E-001	3.08154E-001	2.39689E-004	..........a	-327.66
	9	2.58333	3.07598E-001	3.08367E-001	2.30756E-004	..........a	-327.66
	10	2.84167	3.07877E-001	3.08668E-001	2.42356E-004	..........a	-327.66
	11	3.1	3.08138E-001	3.08936E-001	2.46622E-004	..........a	-327.66
	12	3.35833	3.08391E-001	3.09176E-001	2.45556E-004	..........a	-327.66
	13	3.61667	3.08648E-001	3.09568E-001	2.58689E-004	..........a	-327.66
	14	3.875	3.08916E-001	3.09722E-001	2.50089E-004	..........a	-327.66
	15	4.13333	3.09192E-001	3.09964E-001	2.48422E-004	..........a	-327.66
	16	4.39167	3.09462E-001	3.10252E-001	2.45356E-004	..........a	-327.66
	17	4.65	3.09720E-001	3.10522E-001	2.50222E-004	..........a	-327.66
	18	4.90833	3.09973E-001	3.10761E-001	2.32556E-004	..........a	-327.66
	19	5.16667	3.10232E-001	3.11157E-001	2.49822E-004	..........a	-327.66
	20	5.425	3.10502E-001	3.11311E-001	2.54422E-004	..........a	-327.66
	21	5.68333	3.10779E-001	3.11538E-001	2.52022E-004	..........a	-327.66
	22	5.94167	3.11048E-001	3.11829E-001	2.44489E-004	..........a	-327.66
	23	6.2	3.11304E-001	3.12105E-001	2.58689E-004	..........a	-327.66
	24	6.45833	3.11554E-001	3.12335E-001	2.41956E-004	..........a	-327.66
	25	6.71667	3.11811E-001	3.12680E-001	2.39356E-004	..........a	-327.66
	26	6.975	3.12075E-001	3.12917E-001	2.57089E-004	..........a	-327.66
	27	7.23333	3.12347E-001	3.13111E-001	2.43222E-004	..........a	-327.66
	28	7.49167	3.12616E-001	3.13400E-001	2.38489E-004	..........a	-327.66
	29	7.75	3.12874E-001	3.13667E-001	2.49756E-004	..........a	-327.66
	30	8.00833	3.13127E-001	3.13890E-001	2.36089E-004	..........a	-327.66
	31	8.26667	3.13380E-001	3.14233E-001	2.42222E-004	..........a	-327.66
	32	8.525	3.13640E-001	3.14472E-001	2.52489E-004	..........a	-327.66
	33	8.78333	3.13906E-001	3.14675E-001	2.44956E-004	..........a	-327.66
	34	9.04167	3.14172E-001	3.14939E-001	2.49022E-004	..........a	-327.66
	35	9.3	3.14429E-001	3.15197E-001	2.56822E-004	..........a	-327.66
	36	9.5583	3.14678E-001	3.15458E-001	2.47089E-004	..........a	-327.66
	37	9.8167	3.14927E-001	3.15751E-001	2.36222E-004	..........a	-327.66
	38	10.075	3.15185E-001	3.16031E-001	2.52489E-004	..........a	-327.66
EOC	QUANT	0.3151845	Open Circuit (V)
PSTATMODEL	IQUANT	7	Pstat Model
PSTATSECTION	LABEL	REF600P-43058	Pstat Section
PSTATSERIALNO	LABEL	43058	Pstat Serial Number
CTRLMODE	IQUANT	1	Control Mode
ELECTROMETER	IQUANT	0	RE=0 or CS=1
IESTAB	IQUANT	2	I/E Stability
CASPEED	IQUANT	4	Control Amp Speed
CONVENTION	IQUANT	1	Current Convention
ICHRANGE	IQUANT	2	Ich Range
ICHRANGEMODE	TOGGLE	F	Ich Auto Range
ICHOFFSETENABLE	TOGGLE	F	Ich Offset Enable
ICHOFFSET	QUANT	0	Ich Offset (V)
ICHFILTER	IQUANT	1	Ich Filter
VCHRANGE	IQUANT	2	Vch Range
VCHRANGEMODE	TOGGLE	F	Vch Auto Range
VCHOFFSETENABLE	TOGGLE	F	Vch Offset Enable
VCHOFFSET	QUANT	0	Vch Offset (V)
VCHFILTER	IQUANT	1	Vch Filter
ACHRANGE	IQUANT	2	Ach Range
ACHOFFSETENABLE	TOGGLE	F	Ach Offset Enable
ACHOFFSET	QUANT	0	Ach Offset (V)
ACHFILTER	IQUANT	1	Ach Filter
IERANGELOWERLIMIT	IQUANT	1	I/E Range Lower Limit
IERANGEMODE	TOGGLE	F	I/E AutoRange
IERANGE	IQUANT	4	I/E Range
POSFEEDENABLE	TOGGLE	F	Positive Feedback IR Comp
POSFEEDRESISTANCE	QUANT	0	Positive Feedback Resistance (ohm)
ACHSELECT	IQUANT	4	Ach Select
SENSECABLEID	IQUANT	7	Sense Cable ID
PWRCABLEID	IQUANT	7	Power Cable ID
DCCALDATE	LABEL	12/18/2023	DC Calibration Date
ACCALDATE	LABEL	12/18/2023	AC Calibration Date
THERMOSELECT	IQUANT	1	Thermo Select
FRAMEWORKVERSION	LABEL	7.8.4	Framework Version
INSTRUMENTVERSION	LABEL	4.42	Instrument Version
CURVE1	TABLE
	Pt	T	Vf	Im	Vu	Sig	Ach	IERange	Over	Temp
	#	s	V vs. Ref.	A	V	V	V	#	bits	deg C
	0	0.0002	3.15170E-001	2.47886E-011	0.00000E+000	3.15200E-001	8.00223E-005	4	..........a	-327.66
	3	0.0008	2.85070E-001	-9.82161E-011	0.00000E+000	2.85200E-001	8.00223E-005	4	..........a	-327.66
	6	0.0014	2.55270E-001	-2.32221E-010	0.00000E+000	2.55200E-001	8.00223E-005	4	..........a	-327.66
	9	0.002	2.25270E-001	-3.82227E-010	0.00000E+000	2.25200E-001	8.00223E-005	4	..........a	-327.66
	12	0.0026	1.95270E-001	-5.46233E-010	0.00000E+000	1.95200E-001	-4.19978E-004	4	..........a	-327.66
	15	0.0032	1.65170E-001	-7.27240E-010	0.00000E+000	1.65200E-001	8.00223E-005	4	..........a	-327.66
	18	0.0038	1.35270E-001	-9.30248E-010	0.00000E+000	1.35200E-001	-4.19978E-004	4	..........a	-327.66
	21	0.0044	1.05370E-001	-1.13626E-009	0.00000E+000	1.05200E-001	8.00223E-005	4	..........a	-327.66
	24	0.005	7.52695E-002	-1.36626E-009	0.00000E+000	7.52000E-002	8.00223E-005	4	..........a	-327.66
	27	0.0056	4.51695E-002	-1.61627E-009	0.00000E+000	4.52000E-002	-3.19978E-004	4	..........a	-327.66
	30	0.0062	1.44695E-002	-1.88728E-009	0.00000E+000	1.52000E-002	8.00223E-005	4	..........a	-327.66
	33	0.0068	-1.47805E-002	-2.18030E-009	0.00000E+000	-1.48000E-002	8.00223E-005	4	..........a	-327.66
	36	0.0074	-4.48305E-002	-2.49031E-009	0.00000E+000	-4.48000E-002	8.00223E-005	4	..........a	-327.66
	39	0.008	-7.49305E-002	-2.82032E-009	0.00000E+000	-7.48000E-002	-2.19978E-004	4	..........a	-327.66
	42	0.0086	-1.04630E-001	-3.16433E-009	0.00000E+000	-1.04800E-001	8.00223E-005	4	..........a	-327.66
	45	0.0092	-1.34930E-001	-3.52835E-009	0.00000E+000	-1.34800E-001	8.00223E-005	4	..........a	-327.66
	48	0.0098	-1.64730E-001	-3.90636E-009	0.00000E+000	-1.64800E-001	8.00223E-005	4	..........a	-327.66
	51	0.0104	-1.94830E-001	-4.29238E-009	0.00000E+000	-1.94800E-001	8.00223E-005	4	..........a	-327.66
	54	0.011	-2.24730E-001	-4.68839E-009	0.00000E+000	-2.24800E-001	8.00223E-005	4	..........a	-327.66
	57	0.0116	-2.54730E-001	-5.09041E-009	0.00000E+000	-2.54800E-001	8.00223E-005	4	..........a	-327.66
[...]
	2763	0.5528	6.69869E-001	7.65208E-009	0.00000E+000	6.70000E-001	8.00223E-005	4	..........a	-327.66
	2764	0.553	6.59669E-001	7.61108E-009	0.00000E+000	6.60000E-001	8.00223E-005	4	..........a	-327.66
	2765	0.5532	6.49769E-001	7.56108E-009	0.00000E+000	6.50000E-001	8.00223E-005	4	..........a	-327.66
	2766	0.5534	6.39769E-001	7.50908E-009	0.00000E+000	6.40000E-001	-3.19978E-004	4	..........a	-327.66
	2767	0.5536	6.29969E-001	7.45607E-009	0.00000E+000	6.30000E-001	8.00223E-005	4	..........a	-327.66
	2768	0.5538	6.19869E-001	7.39607E-009	0.00000E+000	6.20000E-001	8.00223E-005	4	..........a	-327.66
	2769	0.554	6.09869E-001	7.34607E-009	0.00000E+000	6.10000E-001	8.00223E-005	4	..........a	-327.66
	2770	0.5542	5.99869E-001	7.28007E-009	0.00000E+000	6.00000E-001	8.00223E-005	4	..........a	-327.66
	2771	0.5544	5.89969E-001	7.21606E-009	0.00000E+000	5.90000E-001	8.00223E-005	4	..........a	-327.66
	2772	0.5546	5.79870E-001	7.15406E-009	0.00000E+000	5.80000E-001	8.00223E-005	4	..........a	-327.66
	2773	0.5548	5.69669E-001	7.08706E-009	0.00000E+000	5.70000E-001	8.00223E-005	4	..........a	-327.66
	2774	0.555	5.60019E-001	7.01406E-009	0.00000E+000	5.60000E-001	8.00223E-005	4	..........a	-327.66
	2775	0.5552	5.49869E-001	6.94605E-009	0.00000E+000	5.50000E-001	8.00223E-005	4	..........a	-327.66
	2776	0.5554	5.39970E-001	6.87405E-009	0.00000E+000	5.40000E-001	8.00223E-005	4	..........a	-327.66
	2777	0.5556	5.30069E-001	6.79805E-009	0.00000E+000	5.30000E-001	8.00223E-005	4	..........a	-327.66
	2778	0.5558	5.19969E-001	6.72405E-009	0.00000E+000	5.20000E-001	-3.19978E-004	4	..........a	-327.66
	2779	0.556	5.09969E-001	6.64904E-009	0.00000E+000	5.10000E-001	8.00223E-005	4	..........a	-327.66
	2780	0.5562	5.00069E-001	6.56904E-009	0.00000E+000	5.00000E-001	8.00223E-005	4	..........a	-327.66
	2781	0.5564	4.90070E-001	6.48904E-009	0.00000E+000	4.90000E-001	8.00223E-005	4	..........a	-327.66
	2782	0.5566	4.79720E-001	6.40403E-009	0.00000E+000	4.80000E-001	8.00223E-005	4	..........a	-327.66
	2783	0.5568	4.69870E-001	6.32403E-009	0.00000E+000	4.70000E-001	8.00223E-005	4	..........a	-327.66
	2784	0.557	4.59970E-001	6.23403E-009	0.00000E+000	4.60000E-001	8.00223E-005	4	..........a	-327.66
	2785	0.5572	4.49670E-001	6.15602E-009	0.00000E+000	4.50000E-001	8.00223E-005	4	..........a	-327.66
	2786	0.5574	4.39670E-001	6.06402E-009	0.00000E+000	4.40000E-001	8.00223E-005	4	..........a	-327.66
	2787	0.5576	4.29870E-001	5.97302E-009	0.00000E+000	4.30000E-001	8.00223E-005	4	..........a	-327.66
	2788	0.5578	4.19970E-001	5.88201E-009	0.00000E+000	4.20000E-001	8.00223E-005	4	..........a	-327.66
	2789	0.558	4.09870E-001	5.79401E-009	0.00000E+000	4.10000E-001	8.00223E-005	4	..........a	-327.66
	2790	0.5582	4.00170E-001	5.70501E-009	0.00000E+000	4.00000E-001	8.00223E-005	4	..........a	-327.66
	2791	0.5584	3.89870E-001	5.59800E-009	0.00000E+000	3.90000E-001	8.00223E-005	4	..........a	-327.66
	2792	0.5586	3.80070E-001	5.50200E-009	0.00000E+000	3.80000E-001	8.00223E-005	4	..........a	-327.66
	2793	0.5588	3.69970E-001	5.40700E-009	0.00000E+000	3.70000E-001	8.00223E-005	4	..........a	-327.66
	2794	0.559	3.60070E-001	5.30599E-009	0.00000E+000	3.60000E-001	8.00223E-005	4	..........a	-327.66
	2795	0.5592	3.50070E-001	5.20099E-009	0.00000E+000	3.50000E-001	8.00223E-005	4	..........a	-327.66
	2796	0.5594	3.40070E-001	5.10098E-009	0.00000E+000	3.40000E-001	8.00223E-005	4	..........a	-327.66
	2797	0.5596	3.29970E-001	4.99698E-009	0.00000E+000	3.30000E-001	8.00223E-005	4	..........a	-327.66
	2798	0.5598	3.19870E-001	4.88898E-009	0.00000E+000	3.20000E-001	8.00223E-005	4	..........a	-327.66