Folder: GamryParser/example_project/raw_outputs (part 5)

File: 20240321_ZJ_GM0016_HL03_E09_CV50k.DTA
EXPLAIN
TAG	CV
TITLE	LABEL	Cyclic Voltammetry	Test &Identifier
DATE	LABEL	3/21/2024	Date
TIME	LABEL	18:32:06	Time
NOTES	NOTES	1	&Notes...

PSTAT	PSTAT	REF600P-43058	Potentiostat
VINIT	POTEN	0.00000E+000	T	Initial &E (V)
VLIMIT1	POTEN	-6.00000E-001	F	Scan Limit &1 (V)
VLIMIT2	POTEN	8.00000E-001	F	Scan Limit &2 (V)
VFINAL	POTEN	0.00000E+000	T	Final &E (V)
SCANRATE	QUANT	4.99999E+004	&Scan Rate (mV/s)
STEPSIZE	QUANT	1.00000E+001	St&ep Size (mV)
CYCLES	IQUANT	10	C&ycles (#)
IMODE	SELECTOR	1	I/E Range &Mode
IRANGE	QUANT	1.00000E-005	&Max Current (mA)
AREA	QUANT	1.00000E+000	Electrode &Area (cm^2)
ELECTRODETYPE	SELECTOR	0	Electrode Type
STRIPPING	TOGGLE	F	Used for Stripping
POLARITY	TOGGLE	F	Signal Polarity
CONDIT	TWOPARAM	F	1.50000E+001	0.00000E+000	Conditionin&g	Time(s)	E(V)
DELAY	TWOPARAM	T	1.00000E+001	0.00000E+000	Init. De&lay	Time(s)	Stab.(mV/s)
EQDELAY	QUANT	1.00000E+001	Equil. &Time (s)
IRCOMP	SELECTOR	0	IRCom&p
PFCOR	QUANT	5.00000E+001	PF Corr. (ohm)
SAMPLINGMODE	SELECTOR	1	Sampling &Mode
OCVCURVE	TABLE	39
	Pt	T	Vf	Vm	Ach	Over	Temp
	#	s	V vs. Ref.	V	V	bits	deg C
	0	0.258333	3.44665E-001	3.44665E-001	2.52222E-004	..........a	-327.66
	1	0.516667	3.44669E-001	3.44878E-001	2.76889E-004	..........a	-327.66
	2	0.775	3.44694E-001	3.45036E-001	2.52956E-004	..........a	-327.66
	3	1.03333	3.44759E-001	3.45215E-001	2.45689E-004	..........a	-327.66
	4	1.29167	3.44875E-001	3.45435E-001	2.52356E-004	..........a	-327.66
	5	1.55	3.45032E-001	3.45628E-001	2.62356E-004	..........a	-327.66
	6	1.80833	3.45214E-001	3.45812E-001	2.62156E-004	..........a	-327.66
	7	2.06667	3.45411E-001	3.46153E-001	2.64356E-004	..........a	-327.66
	8	2.325	3.45623E-001	3.46383E-001	2.66422E-004	..........a	-327.66
	9	2.58333	3.45850E-001	3.46419E-001	2.60622E-004	..........a	-327.66
	10	2.84167	3.46076E-001	3.46553E-001	2.58956E-004	..........a	-327.66
	11	3.1	3.46270E-001	3.46724E-001	2.51156E-004	..........a	-327.66
	12	3.35833	3.46430E-001	3.46922E-001	2.52156E-004	..........a	-327.66
	13	3.61667	3.46577E-001	3.47056E-001	2.33822E-004	..........a	-327.66
	14	3.875	3.46726E-001	3.47094E-001	2.36556E-004	..........a	-327.66
	15	4.13333	3.46872E-001	3.47212E-001	2.45422E-004	..........a	-327.66
	16	4.39167	3.47005E-001	3.47647E-001	2.56889E-004	..........a	-327.66
	17	4.65	3.47153E-001	3.48046E-001	2.60956E-004	..........a	-327.66
	18	4.90833	3.47357E-001	3.48184E-001	2.41022E-004	..........a	-327.66
	19	5.16667	3.47618E-001	3.48306E-001	2.67356E-004	..........a	-327.66
	20	5.425	3.47888E-001	3.48532E-001	2.48356E-004	..........a	-327.66
	21	5.68333	3.48126E-001	3.48770E-001	2.73556E-004	..........a	-327.66
	22	5.94167	3.48335E-001	3.48949E-001	2.44689E-004	..........a	-327.66
	23	6.2	3.48534E-001	3.49127E-001	2.51822E-004	..........a	-327.66
	24	6.45833	3.48736E-001	3.49490E-001	2.47156E-004	..........a	-327.66
	25	6.71667	3.48946E-001	3.49605E-001	2.71356E-004	..........a	-327.66
	26	6.975	3.49164E-001	3.49673E-001	2.81356E-004	..........a	-327.66
	27	7.23333	3.49371E-001	3.49853E-001	2.61822E-004	..........a	-327.66
	28	7.49167	3.49549E-001	3.50008E-001	2.54156E-004	..........a	-327.66
	29	7.75	3.49705E-001	3.50266E-001	2.63022E-004	..........a	-327.66
	30	8.00833	3.49862E-001	3.50467E-001	2.61356E-004	..........a	-327.66
	31	8.26667	3.50038E-001	3.50617E-001	2.55622E-004	..........a	-327.66
	32	8.525	3.50230E-001	3.50815E-001	2.57422E-004	..........a	-327.66
	33	8.78333	3.50427E-001	3.51161E-001	2.58022E-004	..........a	-327.66
	34	9.04167	3.50631E-001	3.51251E-001	2.72489E-004	..........a	-327.66
	35	9.3	3.50842E-001	3.51378E-001	2.54289E-004	..........a	-327.66
	36	9.5583	3.51045E-001	3.51524E-001	2.60222E-004	..........a	-327.66
	37	9.8167	3.51223E-001	3.51736E-001	2.48222E-004	..........a	-327.66
	38	10.075	3.51386E-001	3.51964E-001	2.70422E-004	..........a	-327.66
EOC	QUANT	0.3513857	Open Circuit (V)
PSTATMODEL	IQUANT	7	Pstat Model
PSTATSECTION	LABEL	REF600P-43058	Pstat Section
PSTATSERIALNO	LABEL	43058	Pstat Serial Number
CTRLMODE	IQUANT	1	Control Mode
ELECTROMETER	IQUANT	0	RE=0 or CS=1
IESTAB	IQUANT	2	I/E Stability
CASPEED	IQUANT	4	Control Amp Speed
CONVENTION	IQUANT	1	Current Convention
ICHRANGE	IQUANT	2	Ich Range
ICHRANGEMODE	TOGGLE	F	Ich Auto Range
ICHOFFSETENABLE	TOGGLE	F	Ich Offset Enable
ICHOFFSET	QUANT	0	Ich Offset (V)
ICHFILTER	IQUANT	1	Ich Filter
VCHRANGE	IQUANT	2	Vch Range
VCHRANGEMODE	TOGGLE	F	Vch Auto Range
VCHOFFSETENABLE	TOGGLE	F	Vch Offset Enable
VCHOFFSET	QUANT	0	Vch Offset (V)
VCHFILTER	IQUANT	1	Vch Filter
ACHRANGE	IQUANT	2	Ach Range
ACHOFFSETENABLE	TOGGLE	F	Ach Offset Enable
ACHOFFSET	QUANT	0	Ach Offset (V)
ACHFILTER	IQUANT	1	Ach Filter
IERANGELOWERLIMIT	IQUANT	1	I/E Range Lower Limit
IERANGEMODE	TOGGLE	F	I/E AutoRange
IERANGE	IQUANT	4	I/E Range
POSFEEDENABLE	TOGGLE	F	Positive Feedback IR Comp
POSFEEDRESISTANCE	QUANT	0	Positive Feedback Resistance (ohm)
ACHSELECT	IQUANT	4	Ach Select
SENSECABLEID	IQUANT	7	Sense Cable ID
PWRCABLEID	IQUANT	7	Power Cable ID
DCCALDATE	LABEL	12/18/2023	DC Calibration Date
ACCALDATE	LABEL	12/18/2023	AC Calibration Date
THERMOSELECT	IQUANT	1	Thermo Select
FRAMEWORKVERSION	LABEL	7.8.4	Framework Version
INSTRUMENTVERSION	LABEL	4.42	Instrument Version
CURVE1	TABLE
	Pt	T	Vf	Im	Vu	Sig	Ach	IERange	Over	Temp
	#	s	V vs. Ref.	A	V	V	V	#	bits	deg C
	0	0.0002	3.51470E-001	2.07884E-011	0.00000E+000	3.51400E-001	8.00223E-005	4	..........a	-327.66
	3	0.0008	3.21170E-001	-9.42160E-011	0.00000E+000	3.21400E-001	8.00223E-005	4	..........a	-327.66
	6	0.0014	2.91270E-001	-2.23221E-010	0.00000E+000	2.91400E-001	8.00223E-005	4	..........a	-327.66
	9	0.002	2.61370E-001	-3.72227E-010	0.00000E+000	2.61400E-001	-3.19978E-004	4	..........a	-327.66
	12	0.0026	2.31470E-001	-5.28233E-010	0.00000E+000	2.31400E-001	8.00223E-005	4	..........a	-327.66
	15	0.0032	2.01370E-001	-7.03239E-010	0.00000E+000	2.01400E-001	8.00223E-005	4	..........a	-327.66
	18	0.0038	1.71470E-001	-8.86246E-010	0.00000E+000	1.71400E-001	8.00223E-005	4	..........a	-327.66
	21	0.0044	1.41370E-001	-1.08625E-009	0.00000E+000	1.41400E-001	8.00223E-005	4	..........a	-327.66
	24	0.005	1.11470E-001	-1.31426E-009	0.00000E+000	1.11400E-001	8.00223E-005	4	..........a	-327.66
	27	0.0056	8.14695E-002	-1.54327E-009	0.00000E+000	8.14000E-002	8.00223E-005	4	..........a	-327.66
	30	0.0062	5.13695E-002	-1.80228E-009	0.00000E+000	5.14000E-002	8.00223E-005	4	..........a	-327.66
	33	0.0068	2.15695E-002	-2.08629E-009	0.00000E+000	2.14000E-002	8.00223E-005	4	..........a	-327.66
	36	0.0074	-8.43048E-003	-2.38430E-009	0.00000E+000	-8.60000E-003	8.00223E-005	4	..........a	-327.66
	39	0.008	-3.84305E-002	-2.71532E-009	0.00000E+000	-3.86000E-002	8.00223E-005	4	..........a	-327.66
	42	0.0086	-6.87305E-002	-3.04833E-009	0.00000E+000	-6.86000E-002	8.00223E-005	4	..........a	-327.66
	45	0.0092	-9.85305E-002	-3.42034E-009	0.00000E+000	-9.86000E-002	8.00223E-005	4	..........a	-327.66
	48	0.0098	-1.28530E-001	-3.79936E-009	0.00000E+000	-1.28600E-001	8.00223E-005	4	..........a	-327.66
	51	0.0104	-1.58530E-001	-4.18737E-009	0.00000E+000	-1.58600E-001	8.00223E-005	4	..........a	-327.66
	54	0.011	-1.88530E-001	-4.59239E-009	0.00000E+000	-1.88600E-001	8.00223E-005	4	..........a	-327.66
	57	0.0116	-2.18330E-001	-5.00240E-009	0.00000E+000	-2.18600E-001	8.00223E-005	4	..........a	-327.66
[...]
	2765	0.5532	6.99969E-001	7.04106E-009	0.00000E+000	7.00000E-001	8.00223E-005	4	..........a	-327.66
	2766	0.5534	6.89869E-001	7.01606E-009	0.00000E+000	6.90000E-001	8.00223E-005	4	..........a	-327.66
	2767	0.5536	6.80169E-001	6.97606E-009	0.00000E+000	6.80000E-001	8.00223E-005	4	..........a	-327.66
	2768	0.5538	6.69869E-001	6.94205E-009	0.00000E+000	6.70000E-001	8.00223E-005	4	..........a	-327.66
	2769	0.554	6.60069E-001	6.89205E-009	0.00000E+000	6.60000E-001	8.00223E-005	4	..........a	-327.66
	2770	0.5542	6.49969E-001	6.85005E-009	0.00000E+000	6.50000E-001	8.00223E-005	4	..........a	-327.66
	2771	0.5544	6.39769E-001	6.79805E-009	0.00000E+000	6.40000E-001	8.00223E-005	4	..........a	-327.66
	2772	0.5546	6.29969E-001	6.74805E-009	0.00000E+000	6.30000E-001	8.00223E-005	4	..........a	-327.66
	2773	0.5548	6.19669E-001	6.69304E-009	0.00000E+000	6.20000E-001	8.00223E-005	4	..........a	-327.66
	2774	0.555	6.09969E-001	6.63604E-009	0.00000E+000	6.10000E-001	8.00223E-005	4	..........a	-327.66
	2775	0.5552	6.00069E-001	6.57804E-009	0.00000E+000	6.00000E-001	8.00223E-005	4	..........a	-327.66
	2776	0.5554	5.89869E-001	6.51604E-009	0.00000E+000	5.90000E-001	8.00223E-005	4	..........a	-327.66
	2777	0.5556	5.80069E-001	6.45804E-009	0.00000E+000	5.80000E-001	8.00223E-005	4	..........a	-327.66
	2778	0.5558	5.69869E-001	6.38803E-009	0.00000E+000	5.70000E-001	8.00223E-005	4	..........a	-327.66
	2779	0.556	5.59669E-001	6.32503E-009	0.00000E+000	5.60000E-001	8.00223E-005	4	..........a	-327.66
	2780	0.5562	5.50070E-001	6.25103E-009	0.00000E+000	5.50000E-001	8.00223E-005	4	..........a	-327.66
	2781	0.5564	5.40069E-001	6.18603E-009	0.00000E+000	5.40000E-001	-4.19978E-004	4	..........a	-327.66
	2782	0.5566	5.29970E-001	6.11202E-009	0.00000E+000	5.30000E-001	-3.19978E-004	4	..........a	-327.66
	2783	0.5568	5.19969E-001	6.04202E-009	0.00000E+000	5.20000E-001	8.00223E-005	4	..........a	-327.66
	2784	0.557	5.09969E-001	5.96802E-009	0.00000E+000	5.10000E-001	8.00223E-005	4	..........a	-327.66
	2785	0.5572	5.00219E-001	5.89501E-009	0.00000E+000	5.00000E-001	8.00223E-005	4	..........a	-327.66
	2786	0.5574	4.90070E-001	5.82201E-009	0.00000E+000	4.90000E-001	8.00223E-005	4	..........a	-327.66
	2787	0.5576	4.80220E-001	5.73801E-009	0.00000E+000	4.80000E-001	8.00223E-005	4	..........a	-327.66
	2788	0.5578	4.69970E-001	5.66801E-009	0.00000E+000	4.70000E-001	8.00223E-005	4	..........a	-327.66
	2789	0.558	4.59870E-001	5.58300E-009	0.00000E+000	4.60000E-001	8.00223E-005	4	..........a	-327.66
	2790	0.5582	4.49970E-001	5.50000E-009	0.00000E+000	4.50000E-001	8.00223E-005	4	..........a	-327.66
	2791	0.5584	4.39870E-001	5.41600E-009	0.00000E+000	4.40000E-001	-3.19978E-004	4	..........a	-327.66
	2792	0.5586	4.30070E-001	5.33399E-009	0.00000E+000	4.30000E-001	8.00223E-005	4	..........a	-327.66
	2793	0.5588	4.19970E-001	5.24599E-009	0.00000E+000	4.20000E-001	8.00223E-005	4	..........a	-327.66
	2794	0.559	4.10070E-001	5.16099E-009	0.00000E+000	4.10000E-001	8.00223E-005	4	..........a	-327.66
	2795	0.5592	4.00270E-001	5.07198E-009	0.00000E+000	4.00000E-001	8.00223E-005	4	..........a	-327.66
	2796	0.5594	3.89870E-001	4.97998E-009	0.00000E+000	3.90000E-001	-2.19978E-004	4	..........a	-327.66
	2797	0.5596	3.79970E-001	4.88598E-009	0.00000E+000	3.80000E-001	8.00223E-005	4	..........a	-327.66
	2798	0.5598	3.69970E-001	4.79097E-009	0.00000E+000	3.70000E-001	8.00223E-005	4	..........a	-327.66
	2799	0.56	3.59870E-001	4.69697E-009	0.00000E+000	3.60000E-001	8.00223E-005	4	..........a	-327.66
	2800	0.5602	3.49870E-001	4.59796E-009	0.00000E+000	3.50000E-001	8.00223E-005	4	..........a	-327.66

File: 20240321_ZM_GM0016_HL03_E10_CV50.DTA
EXPLAIN
TAG	CV
TITLE	LABEL	Cyclic Voltammetry	Test &Identifier
DATE	LABEL	3/21/2024	Date
TIME	LABEL	18:41:03	Time
NOTES	NOTES	1	&Notes...

PSTAT	PSTAT	REF600P-43058	Potentiostat
VINIT	POTEN	0.00000E+000	T	Initial &E (V)
VLIMIT1	POTEN	-6.00000E-001	F	Scan Limit &1 (V)
VLIMIT2	POTEN	8.00000E-001	F	Scan Limit &2 (V)
VFINAL	POTEN	0.00000E+000	T	Final &E (V)
SCANRATE	QUANT	4.99999E+001	&Scan Rate (mV/s)
STEPSIZE	QUANT	1.00000E+001	St&ep Size (mV)
CYCLES	IQUANT	4	C&ycles (#)
IMODE	SELECTOR	1	I/E Range &Mode
IRANGE	QUANT	1.00000E-005	&Max Current (mA)
AREA	QUANT	1.00000E+000	Electrode &Area (cm^2)
ELECTRODETYPE	SELECTOR	0	Electrode Type
STRIPPING	TOGGLE	F	Used for Stripping
POLARITY	TOGGLE	F	Signal Polarity
CONDIT	TWOPARAM	F	1.50000E+001	0.00000E+000	Conditionin&g	Time(s)	E(V)
DELAY	TWOPARAM	T	1.00000E+001	0.00000E+000	Init. De&lay	Time(s)	Stab.(mV/s)
EQDELAY	QUANT	1.00000E+001	Equil. &Time (s)
IRCOMP	SELECTOR	0	IRCom&p
PFCOR	QUANT	5.00000E+001	PF Corr. (ohm)
SAMPLINGMODE	SELECTOR	1	Sampling &Mode
OCVCURVE	TABLE	39
	Pt	T	Vf	Vm	Ach	Over	Temp
	#	s	V vs. Ref.	V	V	bits	deg C
	0	0.258333	3.36802E-001	3.36802E-001	2.51956E-004	..........a	-327.66
	1	0.516667	3.36806E-001	3.36987E-001	2.66422E-004	..........a	-327.66
	2	0.775	3.36831E-001	3.37357E-001	2.50556E-004	..........a	-327.66
	3	1.03333	3.36916E-001	3.37760E-001	2.56022E-004	..........a	-327.66
	4	1.29167	3.37098E-001	3.38205E-001	2.54689E-004	..........a	-327.66
	5	1.55	3.37382E-001	3.38561E-001	2.44422E-004	..........a	-327.66
	6	1.80833	3.37739E-001	3.38927E-001	2.43156E-004	..........a	-327.66
	7	2.06667	3.38129E-001	3.39368E-001	2.65489E-004	..........a	-327.66
	8	2.325	3.38527E-001	3.39802E-001	2.45222E-004	..........a	-327.66
	9	2.58333	3.38928E-001	3.40155E-001	2.58089E-004	..........a	-327.66
	10	2.84167	3.39333E-001	3.40532E-001	2.64689E-004	..........a	-327.66
	11	3.1	3.39734E-001	3.40950E-001	2.61289E-004	..........a	-327.66
	12	3.35833	3.40130E-001	3.41413E-001	2.55089E-004	..........a	-327.66
	13	3.61667	3.40528E-001	3.41772E-001	2.64956E-004	..........a	-327.66
	14	3.875	3.40934E-001	3.42139E-001	2.53556E-004	..........a	-327.66
	15	4.13333	3.41338E-001	3.42548E-001	2.60956E-004	..........a	-327.66
	16	4.39167	3.41736E-001	3.42978E-001	2.51822E-004	..........a	-327.66
	17	4.65	3.42130E-001	3.43342E-001	2.64356E-004	..........a	-327.66
	18	4.90833	3.42526E-001	3.43725E-001	2.57289E-004	..........a	-327.66
	19	5.16667	3.42921E-001	3.44126E-001	2.64356E-004	..........a	-327.66
	20	5.425	3.43314E-001	3.44511E-001	2.48756E-004	..........a	-327.66
	21	5.68333	3.43704E-001	3.44922E-001	2.63822E-004	..........a	-327.66
	22	5.94167	3.44094E-001	3.45255E-001	2.59422E-004	..........a	-327.66
	23	6.2	3.44482E-001	3.45642E-001	2.51222E-004	..........a	-327.66
	24	6.45833	3.44867E-001	3.46160E-001	2.56956E-004	..........a	-327.66
	25	6.71667	3.45254E-001	3.46402E-001	2.73022E-004	..........a	-327.66
	26	6.975	3.45645E-001	3.46673E-001	2.52756E-004	..........a	-327.66
	27	7.23333	3.46018E-001	3.47028E-001	2.64222E-004	..........a	-327.66
	28	7.49167	3.46359E-001	3.47160E-001	2.27089E-004	..........a	-327.66
	29	7.75	3.46671E-001	3.47902E-001	2.57889E-004	..........a	-327.66
	30	8.00833	3.46989E-001	3.48223E-001	2.57222E-004	..........a	-327.66
	31	8.26667	3.47350E-001	3.48594E-001	2.57622E-004	..........a	-327.66
	32	8.525	3.47752E-001	3.48981E-001	2.80689E-004	..........a	-327.66
	33	8.78333	3.48166E-001	3.49532E-001	2.67422E-004	..........a	-327.66
	34	9.04167	3.48578E-001	3.49664E-001	2.66956E-004	..........a	-327.66
	35	9.3	3.48978E-001	3.49975E-001	2.36689E-004	..........a	-327.66
	36	9.5583	3.49347E-001	3.50417E-001	2.57956E-004	..........a	-327.66
	37	9.8167	3.49686E-001	3.50752E-001	2.51756E-004	..........a	-327.66
	38	10.075	3.50023E-001	3.51230E-001	2.62956E-004	..........a	-327.66
EOC	QUANT	0.3500232	Open Circuit (V)
PSTATMODEL	IQUANT	7	Pstat Model
PSTATSECTION	LABEL	REF600P-43058	Pstat Section
PSTATSERIALNO	LABEL	43058	Pstat Serial Number
CTRLMODE	IQUANT	1	Control Mode
ELECTROMETER	IQUANT	0	RE=0 or CS=1
IESTAB	IQUANT	2	I/E Stability
CASPEED	IQUANT	4	Control Amp Speed
CONVENTION	IQUANT	1	Current Convention
ICHRANGE	IQUANT	2	Ich Range
ICHRANGEMODE	TOGGLE	F	Ich Auto Range
ICHOFFSETENABLE	TOGGLE	F	Ich Offset Enable
ICHOFFSET	QUANT	0	Ich Offset (V)
ICHFILTER	IQUANT	2	Ich Filter
VCHRANGE	IQUANT	2	Vch Range
VCHRANGEMODE	TOGGLE	F	Vch Auto Range
VCHOFFSETENABLE	TOGGLE	F	Vch Offset Enable
VCHOFFSET	QUANT	0	Vch Offset (V)
VCHFILTER	IQUANT	2	Vch Filter
ACHRANGE	IQUANT	2	Ach Range
ACHOFFSETENABLE	TOGGLE	F	Ach Offset Enable
ACHOFFSET	QUANT	0	Ach Offset (V)
ACHFILTER	IQUANT	1	Ach Filter
IERANGELOWERLIMIT	IQUANT	1	I/E Range Lower Limit
IERANGEMODE	TOGGLE	F	I/E AutoRange
IERANGE	IQUANT	4	I/E Range
POSFEEDENABLE	TOGGLE	F	Positive Feedback IR Comp
POSFEEDRESISTANCE	QUANT	0	Positive Feedback Resistance (ohm)
ACHSELECT	IQUANT	4	Ach Select
SENSECABLEID	IQUANT	7	Sense Cable ID
PWRCABLEID	IQUANT	7	Power Cable ID
DCCALDATE	LABEL	12/18/2023	DC Calibration Date
ACCALDATE	LABEL	12/18/2023	AC Calibration Date
THERMOSELECT	IQUANT	1	Thermo Select
FRAMEWORKVERSION	LABEL	7.8.4	Framework Version
INSTRUMENTVERSION	LABEL	4.42	Instrument Version
CURVE1	TABLE
	Pt	T	Vf	Im	Vu	Sig	Ach	IERange	Over	Temp
	#	s	V vs. Ref.	A	V	V	V	#	bits	deg C
	0	0.2	3.49923E-001	1.40103E-011	0.00000E+000	3.50000E-001	1.00892E-003	4	..........a	-327.66
	3	0.8	3.20018E-001	-3.74096E-011	0.00000E+000	3.20000E-001	1.04152E-003	4	..........a	-327.66
	6	1.4	2.89991E-001	-4.84511E-011	0.00000E+000	2.90000E-001	1.00592E-003	4	..........a	-327.66
	9	2	2.60038E-001	-5.47993E-011	0.00000E+000	2.60000E-001	1.05582E-003	4	..........a	-327.66
	12	2.6	2.29953E-001	-6.03715E-011	0.00000E+000	2.30000E-001	1.02462E-003	4	..........a	-327.66
	15	3.2	1.99996E-001	-6.63417E-011	0.00000E+000	2.00000E-001	1.03792E-003	4	..........a	-327.66
	18	3.8	1.70114E-001	-6.96649E-011	0.00000E+000	1.70000E-001	1.00332E-003	4	..........a	-327.66
	21	4.4	1.40101E-001	-7.16210E-011	0.00000E+000	1.40000E-001	1.03242E-003	4	..........a	-327.66
	24	5	1.10075E-001	-7.34640E-011	0.00000E+000	1.10000E-001	1.04372E-003	4	..........a	-327.66
	27	5.6	8.00174E-002	-7.50081E-011	0.00000E+000	8.00000E-002	1.04682E-003	4	..........a	-327.66
	30	6.2	5.00495E-002	-7.80192E-011	0.00000E+000	5.00000E-002	9.94322E-004	4	..........a	-327.66
	33	6.8	2.00603E-002	-8.01983E-011	0.00000E+000	2.00000E-002	1.03032E-003	4	..........a	-327.66
	36	7.4	-1.00193E-002	-8.33664E-011	0.00000E+000	-1.00000E-002	1.01512E-003	4	..........a	-327.66
	39	8	-3.99279E-002	-8.81036E-011	0.00000E+000	-4.00000E-002	1.00432E-003	4	..........a	-327.66
	42	8.6	-6.99561E-002	-9.55499E-011	0.00000E+000	-7.00000E-002	1.02642E-003	4	..........a	-327.66
	45	9.2	-9.99110E-002	-1.04318E-010	0.00000E+000	-1.00000E-001	1.02152E-003	4	..........a	-327.66
	48	9.8	-1.30010E-001	-1.15807E-010	0.00000E+000	-1.30000E-001	1.02542E-003	4	..........a	-327.66
	51	10.4	-1.60013E-001	-1.28806E-010	0.00000E+000	-1.60000E-001	1.03242E-003	4	..........a	-327.66
	54	11	-1.89987E-001	-1.44501E-010	0.00000E+000	-1.90000E-001	1.04122E-003	4	..........a	-327.66
	57	11.6	-2.19892E-001	-1.63899E-010	0.00000E+000	-2.20000E-001	1.02562E-003	4	..........a	-327.66
	60	12.2	-2.49961E-001	-1.85397E-010	0.00000E+000	-2.50000E-001	1.03952E-003	4	..........a	-327.66
[...]
	1085	217.2	6.99981E-001	2.84591E-012	0.00000E+000	7.00000E-001	1.02022E-003	4	..........a	-327.66
	1086	217.4	6.89907E-001	-8.22152E-012	0.00000E+000	6.90000E-001	1.01602E-003	4	..........a	-327.66
	1087	217.6	6.79803E-001	-1.95130E-011	0.00000E+000	6.80000E-001	9.96022E-004	4	..........a	-327.66
	1088	217.8	6.69930E-001	-2.93213E-011	0.00000E+000	6.70000E-001	1.02152E-003	4	..........a	-327.66
	1089	218	6.60013E-001	-3.68626E-011	0.00000E+000	6.60000E-001	1.00832E-003	4	..........a	-327.66
	1090	218.2	6.49928E-001	-4.24218E-011	0.00000E+000	6.50000E-001	1.01982E-003	4	..........a	-327.66
	1091	218.4	6.39940E-001	-4.97811E-011	0.00000E+000	6.40000E-001	1.01032E-003	4	..........a	-327.66
	1092	218.6	6.29942E-001	-5.48633E-011	0.00000E+000	6.30000E-001	9.97922E-004	4	..........a	-327.66
	1093	218.8	6.20017E-001	-5.91725E-011	0.00000E+000	6.20000E-001	1.03042E-003	4	..........a	-327.66
	1094	219	6.09966E-001	-6.59637E-011	0.00000E+000	6.10000E-001	1.02052E-003	4	..........a	-327.66
	1095	219.2	5.99949E-001	-6.95599E-011	0.00000E+000	6.00000E-001	1.01422E-003	4	..........a	-327.66
	1096	219.4	5.89952E-001	-7.32970E-011	0.00000E+000	5.90000E-001	1.01742E-003	4	..........a	-327.66
	1097	219.6	5.80030E-001	-7.67252E-011	0.00000E+000	5.80000E-001	1.03042E-003	4	..........a	-327.66
	1098	219.8	5.69959E-001	-8.10703E-011	0.00000E+000	5.70000E-001	9.98222E-004	4	..........a	-327.66
	1099	220	5.59968E-001	-8.35464E-011	0.00000E+000	5.60000E-001	1.01062E-003	4	..........a	-327.66
	1100	220.2	5.49983E-001	-8.66915E-011	0.00000E+000	5.50000E-001	1.01062E-003	4	..........a	-327.66
	1101	220.4	5.40010E-001	-9.01987E-011	0.00000E+000	5.40000E-001	1.02622E-003	4	..........a	-327.66
	1102	220.6	5.30024E-001	-9.24748E-011	0.00000E+000	5.30000E-001	1.01312E-003	4	..........a	-327.66
	1103	220.8	5.19959E-001	-9.45658E-011	0.00000E+000	5.20000E-001	1.01612E-003	4	..........a	-327.66
	1104	221	5.09933E-001	-9.78400E-011	0.00000E+000	5.10000E-001	1.02402E-003	4	..........a	-327.66
	1105	221.2	5.00069E-001	-9.91200E-011	0.00000E+000	5.00000E-001	1.00392E-003	4	..........a	-327.66
	1106	221.4	4.89988E-001	-1.02614E-010	0.00000E+000	4.90000E-001	1.00032E-003	4	..........a	-327.66
	1107	221.6	4.79977E-001	-1.05012E-010	0.00000E+000	4.80000E-001	1.01572E-003	4	..........a	-327.66
	1108	221.8	4.69964E-001	-1.07138E-010	0.00000E+000	4.70000E-001	1.01512E-003	4	..........a	-327.66
	1109	222	4.60022E-001	-1.08914E-010	0.00000E+000	4.60000E-001	1.03042E-003	4	..........a	-327.66
	1110	222.2	4.49960E-001	-1.12327E-010	0.00000E+000	4.50000E-001	9.88522E-004	4	..........a	-327.66
	1111	222.4	4.39986E-001	-1.14420E-010	0.00000E+000	4.40000E-001	1.01352E-003	4	..........a	-327.66
	1112	222.6	4.29960E-001	-1.16132E-010	0.00000E+000	4.30000E-001	1.00682E-003	4	..........a	-327.66
	1113	222.8	4.20028E-001	-1.18333E-010	0.00000E+000	4.20000E-001	1.01482E-003	4	..........a	-327.66
	1114	223	4.09968E-001	-1.20273E-010	0.00000E+000	4.10000E-001	1.01252E-003	4	..........a	-327.66
	1115	223.2	4.00030E-001	-1.22398E-010	0.00000E+000	4.00000E-001	1.03082E-003	4	..........a	-327.66
	1116	223.4	3.89980E-001	-1.23913E-010	0.00000E+000	3.90000E-001	1.02982E-003	4	..........a	-327.66
	1117	223.6	3.80008E-001	-1.26909E-010	0.00000E+000	3.80000E-001	1.03132E-003	4	..........a	-327.66
	1118	223.8	3.70005E-001	-1.28770E-010	0.00000E+000	3.70000E-001	1.00822E-003	4	..........a	-327.66
	1119	224	3.59921E-001	-1.31240E-010	0.00000E+000	3.60000E-001	1.01632E-003	4	..........a	-327.66
	1120	224.2	3.49963E-001	-1.32532E-010	0.00000E+000	3.50000E-001	1.00602E-003	4	..........a	-327.66