Folder: GamryParser/example_project/raw_outputs (part 13)

File: 20240424_ZR_GM0016_HL03_E11_CV50K.DTA
EXPLAIN
TAG	CV
TITLE	LABEL	Cyclic Voltammetry	Test &Identifier
DATE	LABEL	4/24/2024	Date
TIME	LABEL	19:10:59	Time
NOTES	NOTES	1	&Notes...

PSTAT	PSTAT	REF600P-43058	Potentiostat
VINIT	POTEN	0.00000E+000	T	Initial &E (V)
VLIMIT1	POTEN	-6.00000E-001	F	Scan Limit &1 (V)
VLIMIT2	POTEN	8.00000E-001	F	Scan Limit &2 (V)
VFINAL	POTEN	0.00000E+000	T	Final &E (V)
SCANRATE	QUANT	4.99999E+004	&Scan Rate (mV/s)
STEPSIZE	QUANT	1.00000E+001	St&ep Size (mV)
CYCLES	IQUANT	10	C&ycles (#)
IMODE	SELECTOR	0	I/E Range &Mode
IRANGE	QUANT	1.00000E-005	&Max Current (mA)
AREA	QUANT	1.00000E+000	Electrode &Area (cm^2)
ELECTRODETYPE	SELECTOR	0	Electrode Type
STRIPPING	TOGGLE	F	Used for Stripping
POLARITY	TOGGLE	F	Signal Polarity
CONDIT	TWOPARAM	F	1.50000E+001	0.00000E+000	Conditionin&g	Time(s)	E(V)
DELAY	TWOPARAM	T	1.00000E+001	0.00000E+000	Init. De&lay	Time(s)	Stab.(mV/s)
EQDELAY	QUANT	1.00000E+001	Equil. &Time (s)
IRCOMP	SELECTOR	0	IRCom&p
PFCOR	QUANT	5.00000E+001	PF Corr. (ohm)
SAMPLINGMODE	SELECTOR	1	Sampling &Mode
OCVCURVE	TABLE	39
	Pt	T	Vf	Vm	Ach	Over	Temp
	#	s	V vs. Ref.	V	V	bits	deg C
	0	0.258333	1.13672E-001	1.13672E-001	2.40326E-004	..........a	-327.66
	1	0.516667	1.13665E-001	1.13321E-001	2.39326E-004	..........a	-327.66
	2	0.775	1.13623E-001	1.12969E-001	2.45859E-004	..........a	-327.66
	3	1.03333	1.13504E-001	1.12619E-001	2.53792E-004	..........a	-327.66
	4	1.29167	1.13288E-001	1.12265E-001	2.39192E-004	..........a	-327.66
	5	1.55	1.12993E-001	1.11909E-001	2.46792E-004	..........a	-327.66
	6	1.80833	1.12654E-001	1.11560E-001	2.43259E-004	..........a	-327.66
	7	2.06667	1.12299E-001	1.11204E-001	2.39392E-004	..........a	-327.66
	8	2.325	1.11942E-001	1.10853E-001	2.35659E-004	..........a	-327.66
	9	2.58333	1.11587E-001	1.10495E-001	2.39459E-004	..........a	-327.66
	10	2.84167	1.11232E-001	1.10143E-001	2.32926E-004	..........a	-327.66
	11	3.1	1.10878E-001	1.09785E-001	2.32859E-004	..........a	-327.66
	12	3.35833	1.10524E-001	1.09432E-001	2.40459E-004	..........a	-327.66
	13	3.61667	1.10169E-001	1.09084E-001	2.45859E-004	..........a	-327.66
	14	3.875	1.09815E-001	1.08729E-001	2.39726E-004	..........a	-327.66
	15	4.13333	1.09462E-001	1.08380E-001	2.37526E-004	..........a	-327.66
	16	4.39167	1.09109E-001	1.08031E-001	2.53059E-004	..........a	-327.66
	17	4.65	1.08758E-001	1.07677E-001	2.41459E-004	..........a	-327.66
	18	4.90833	1.08407E-001	1.07330E-001	2.43259E-004	..........a	-327.66
	19	5.16667	1.08057E-001	1.06981E-001	2.39992E-004	..........a	-327.66
	20	5.425	1.07707E-001	1.06631E-001	2.54192E-004	..........a	-327.66
	21	5.68333	1.07357E-001	1.06274E-001	2.30259E-004	..........a	-327.66
	22	5.94167	1.07007E-001	1.05939E-001	2.27259E-004	..........a	-327.66
	23	6.2	1.06657E-001	1.05592E-001	2.45726E-004	..........a	-327.66
	24	6.45833	1.06309E-001	1.05252E-001	2.49259E-004	..........a	-327.66
	25	6.71667	1.05964E-001	1.04902E-001	2.43259E-004	..........a	-327.66
	26	6.975	1.05619E-001	1.04560E-001	2.32259E-004	..........a	-327.66
	27	7.23333	1.05275E-001	1.04216E-001	2.57659E-004	..........a	-327.66
	28	7.49167	1.04931E-001	1.03883E-001	2.44459E-004	..........a	-327.66
	29	7.75	1.04588E-001	1.03540E-001	2.41126E-004	..........a	-327.66
	30	8.00833	1.04247E-001	1.03202E-001	2.42926E-004	..........a	-327.66
	31	8.26667	1.03907E-001	1.02867E-001	2.40526E-004	..........a	-327.66
	32	8.525	1.03568E-001	1.02536E-001	2.45392E-004	..........a	-327.66
	33	8.78333	1.03231E-001	1.02202E-001	2.40392E-004	..........a	-327.66
	34	9.04167	1.02895E-001	1.01870E-001	2.33859E-004	..........a	-327.66
	35	9.3	1.02561E-001	1.01539E-001	2.46859E-004	..........a	-327.66
	36	9.5583	1.02228E-001	1.01199E-001	2.29992E-004	..........a	-327.66
	37	9.8167	1.01896E-001	1.00877E-001	2.32726E-004	..........a	-327.66
	38	10.075	1.01563E-001	1.00550E-001	2.38659E-004	..........a	-327.66
EOC	QUANT	0.101563	Open Circuit (V)
PSTATMODEL	IQUANT	7	Pstat Model
PSTATSECTION	LABEL	REF600P-43058	Pstat Section
PSTATSERIALNO	LABEL	43058	Pstat Serial Number
CTRLMODE	IQUANT	1	Control Mode
ELECTROMETER	IQUANT	0	RE=0 or CS=1
IESTAB	IQUANT	2	I/E Stability
CASPEED	IQUANT	4	Control Amp Speed
CONVENTION	IQUANT	1	Current Convention
ICHRANGE	IQUANT	2	Ich Range
ICHRANGEMODE	TOGGLE	F	Ich Auto Range
ICHOFFSETENABLE	TOGGLE	F	Ich Offset Enable
ICHOFFSET	QUANT	0	Ich Offset (V)
ICHFILTER	IQUANT	1	Ich Filter
VCHRANGE	IQUANT	2	Vch Range
VCHRANGEMODE	TOGGLE	F	Vch Auto Range
VCHOFFSETENABLE	TOGGLE	F	Vch Offset Enable
VCHOFFSET	QUANT	0	Vch Offset (V)
VCHFILTER	IQUANT	1	Vch Filter
ACHRANGE	IQUANT	2	Ach Range
ACHOFFSETENABLE	TOGGLE	F	Ach Offset Enable
ACHOFFSET	QUANT	0	Ach Offset (V)
ACHFILTER	IQUANT	1	Ach Filter
IERANGELOWERLIMIT	IQUANT	1	I/E Range Lower Limit
IERANGEMODE	TOGGLE	T	I/E AutoRange
IERANGE	IQUANT	4	I/E Range
POSFEEDENABLE	TOGGLE	F	Positive Feedback IR Comp
POSFEEDRESISTANCE	QUANT	0	Positive Feedback Resistance (ohm)
ACHSELECT	IQUANT	4	Ach Select
SENSECABLEID	IQUANT	7	Sense Cable ID
PWRCABLEID	IQUANT	7	Power Cable ID
DCCALDATE	LABEL	3/22/2024	DC Calibration Date
ACCALDATE	LABEL	3/22/2024	AC Calibration Date
THERMOSELECT	IQUANT	1	Thermo Select
FRAMEWORKVERSION	LABEL	7.8.4	Framework Version
INSTRUMENTVERSION	LABEL	4.42	Instrument Version
CURVE1	TABLE
	Pt	T	Vf	Im	Vu	Sig	Ach	IERange	Over	Temp
	#	s	V vs. Ref.	A	V	V	V	#	bits	deg C
	0	0.0002	1.01747E-001	2.15000E-007	0.00000E+000	1.01550E-001	8.15923E-005	8	..........a	-327.66
	3	0.0008	7.16971E-002	-2.48510E-006	0.00000E+000	7.15500E-002	8.15923E-005	8	..........a	-327.66
	6	0.0014	4.14471E-002	-3.98516E-006	0.00000E+000	4.15500E-002	8.15923E-005	8	..........a	-327.66
	9	0.002	1.16471E-002	-4.98520E-006	0.00000E+000	1.15500E-002	8.15923E-005	8	..........a	-327.66
	12	0.0026	-1.83529E-002	-5.77523E-006	0.00000E+000	-1.84500E-002	8.15923E-005	8	..........a	-327.66
	15	0.0032	-4.84529E-002	-6.37525E-006	0.00000E+000	-4.84500E-002	8.15923E-005	8	..........a	-327.66
	18	0.0038	-7.82529E-002	-6.90527E-006	0.00000E+000	-7.84500E-002	8.15923E-005	8	..........a	-327.66
	21	0.0044	-1.08553E-001	-7.28529E-006	0.00000E+000	-1.08450E-001	8.15923E-005	8	..........a	-327.66
	24	0.005	-1.38453E-001	-7.69530E-006	0.00000E+000	-1.38450E-001	8.15923E-005	8	..........a	-327.66
	27	0.0056	-1.68403E-001	-8.05532E-006	0.00000E+000	-1.68450E-001	8.15923E-005	8	..........a	-327.66
	30	0.0062	-1.98253E-001	-8.35533E-006	0.00000E+000	-1.98450E-001	8.15923E-005	8	..........a	-327.66
	33	0.0068	-2.28353E-001	-8.68534E-006	0.00000E+000	-2.28450E-001	8.15923E-005	8	..........a	-327.66
	36	0.0074	-2.58353E-001	-8.97535E-006	0.00000E+000	-2.58450E-001	8.15923E-005	8	..........a	-327.66
	39	0.008	-2.88253E-001	-9.33536E-006	0.00000E+000	-2.88450E-001	8.15923E-005	8	..........a	-327.66
	42	0.0086	-3.18153E-001	-9.69538E-006	0.00000E+000	-3.18450E-001	8.15923E-005	8	..........a	-327.66
	45	0.0092	-3.48353E-001	-1.00054E-005	0.00000E+000	-3.48450E-001	8.15923E-005	8	..........a	-327.66
	48	0.0098	-3.78153E-001	-1.04354E-005	0.00000E+000	-3.78450E-001	8.15923E-005	8	..........a	-327.66
	51	0.0104	-4.08453E-001	-1.08154E-005	0.00000E+000	-4.08450E-001	8.15923E-005	8	..........a	-327.66
	54	0.011	-4.38253E-001	-1.12154E-005	0.00000E+000	-4.38450E-001	8.15923E-005	8	..........a	-327.66
	57	0.0116	-4.68453E-001	-1.17055E-005	0.00000E+000	-4.68450E-001	8.15923E-005	8	..........a	-327.66
[...]
	2765	0.5532	4.49947E-001	-6.83527E-006	0.00000E+000	4.50000E-001	8.15923E-005	8	..........a	-327.66
	2766	0.5534	4.39847E-001	-7.13528E-006	0.00000E+000	4.40000E-001	8.15923E-005	8	..........a	-327.66
	2767	0.5536	4.29847E-001	-7.40529E-006	0.00000E+000	4.30000E-001	8.15923E-005	8	..........a	-327.66
	2768	0.5538	4.20097E-001	-7.69530E-006	0.00000E+000	4.20000E-001	8.15923E-005	8	..........a	-327.66
	2769	0.554	4.10047E-001	-7.97531E-006	0.00000E+000	4.10000E-001	-1.18408E-004	8	..........a	-327.66
	2770	0.5542	4.00147E-001	-8.19532E-006	0.00000E+000	4.00000E-001	8.15923E-005	8	..........a	-327.66
	2771	0.5544	3.90047E-001	-8.47533E-006	0.00000E+000	3.90000E-001	8.15923E-005	8	..........a	-327.66
	2772	0.5546	3.80247E-001	-8.64534E-006	0.00000E+000	3.80000E-001	8.15923E-005	8	..........a	-327.66
	2773	0.5548	3.70047E-001	-8.95535E-006	0.00000E+000	3.70000E-001	8.15923E-005	8	..........a	-327.66
	2774	0.555	3.59947E-001	-9.23536E-006	0.00000E+000	3.60000E-001	-2.18408E-004	8	..........a	-327.66
	2775	0.5552	3.50147E-001	-9.45537E-006	0.00000E+000	3.50000E-001	8.15923E-005	8	..........a	-327.66
	2776	0.5554	3.40047E-001	-9.73538E-006	0.00000E+000	3.40000E-001	-4.18408E-004	8	..........a	-327.66
	2777	0.5556	3.30047E-001	-9.92539E-006	0.00000E+000	3.30000E-001	8.15923E-005	8	..........a	-327.66
	2778	0.5558	3.19947E-001	-1.02754E-005	0.00000E+000	3.20000E-001	8.15923E-005	8	..........a	-327.66
	2779	0.556	3.10047E-001	-1.05254E-005	0.00000E+000	3.10000E-001	8.15923E-005	8	..........a	-327.66
	2780	0.5562	3.00047E-001	-1.07054E-005	0.00000E+000	3.00000E-001	8.15923E-005	8	..........a	-327.66
	2781	0.5564	2.89947E-001	-1.09354E-005	0.00000E+000	2.90000E-001	8.15923E-005	8	..........a	-327.66
	2782	0.5566	2.80047E-001	-1.11854E-005	0.00000E+000	2.80000E-001	8.15923E-005	8	..........a	-327.66
	2783	0.5568	2.70047E-001	-1.14754E-005	0.00000E+000	2.70000E-001	8.15923E-005	8	..........a	-327.66
	2784	0.557	2.60047E-001	-1.16455E-005	0.00000E+000	2.60000E-001	8.15923E-005	8	..........a	-327.66
	2785	0.5572	2.49947E-001	-1.19055E-005	0.00000E+000	2.50000E-001	8.15923E-005	8	..........a	-327.66
	2786	0.5574	2.39947E-001	-1.21055E-005	0.00000E+000	2.40000E-001	8.15923E-005	8	..........a	-327.66
	2787	0.5576	2.30147E-001	-1.22755E-005	0.00000E+000	2.30000E-001	-2.18408E-004	8	..........a	-327.66
	2788	0.5578	2.20197E-001	-1.24255E-005	0.00000E+000	2.20000E-001	8.15923E-005	8	..........a	-327.66
	2789	0.558	2.09947E-001	-1.26155E-005	0.00000E+000	2.10000E-001	8.15923E-005	8	..........a	-327.66
	2790	0.5582	2.00047E-001	-1.27855E-005	0.00000E+000	2.00000E-001	8.15923E-005	8	..........a	-327.66
	2791	0.5584	1.90047E-001	-1.28855E-005	0.00000E+000	1.90000E-001	-2.18408E-004	8	..........a	-327.66
	2792	0.5586	1.80147E-001	-1.30655E-005	0.00000E+000	1.80000E-001	8.15923E-005	8	..........a	-327.66
	2793	0.5588	1.70147E-001	-1.31955E-005	0.00000E+000	1.70000E-001	8.15923E-005	8	..........a	-327.66
	2794	0.559	1.60147E-001	-1.32755E-005	0.00000E+000	1.60000E-001	8.15923E-005	8	..........a	-327.66
	2795	0.5592	1.50147E-001	-1.34155E-005	0.00000E+000	1.50000E-001	-2.18408E-004	8	..........a	-327.66
	2796	0.5594	1.40047E-001	-1.35355E-005	0.00000E+000	1.40000E-001	-3.18408E-004	8	..........a	-327.66
	2797	0.5596	1.30047E-001	-1.36355E-005	0.00000E+000	1.30000E-001	8.15923E-005	8	..........a	-327.66
	2798	0.5598	1.20147E-001	-1.37355E-005	0.00000E+000	1.20000E-001	8.15923E-005	8	..........a	-327.66
	2799	0.56	1.10047E-001	-1.38555E-005	0.00000E+000	1.10000E-001	8.15923E-005	8	..........a	-327.66
	2800	0.5602	9.99471E-002	-1.38855E-005	0.00000E+000	1.00000E-001	8.15923E-005	8	..........a	-327.66

File: 20240424_ZZG_GM0016_HL03_E15_CV50.DTA
EXPLAIN
TAG	CV
TITLE	LABEL	Cyclic Voltammetry	Test &Identifier
DATE	LABEL	4/24/2024	Date
TIME	LABEL	19:57:56	Time
NOTES	NOTES	1	&Notes...

PSTAT	PSTAT	REF600P-43058	Potentiostat
VINIT	POTEN	0.00000E+000	T	Initial &E (V)
VLIMIT1	POTEN	-6.00000E-001	F	Scan Limit &1 (V)
VLIMIT2	POTEN	8.00000E-001	F	Scan Limit &2 (V)
VFINAL	POTEN	0.00000E+000	T	Final &E (V)
SCANRATE	QUANT	4.99999E+001	&Scan Rate (mV/s)
STEPSIZE	QUANT	1.00000E+001	St&ep Size (mV)
CYCLES	IQUANT	4	C&ycles (#)
IMODE	SELECTOR	0	I/E Range &Mode
IRANGE	QUANT	1.00000E-005	&Max Current (mA)
AREA	QUANT	1.00000E+000	Electrode &Area (cm^2)
ELECTRODETYPE	SELECTOR	0	Electrode Type
STRIPPING	TOGGLE	F	Used for Stripping
POLARITY	TOGGLE	F	Signal Polarity
CONDIT	TWOPARAM	F	1.50000E+001	0.00000E+000	Conditionin&g	Time(s)	E(V)
DELAY	TWOPARAM	T	1.00000E+001	0.00000E+000	Init. De&lay	Time(s)	Stab.(mV/s)
EQDELAY	QUANT	1.00000E+001	Equil. &Time (s)
IRCOMP	SELECTOR	0	IRCom&p
PFCOR	QUANT	5.00000E+001	PF Corr. (ohm)
SAMPLINGMODE	SELECTOR	1	Sampling &Mode
OCVCURVE	TABLE	39
	Pt	T	Vf	Vm	Ach	Over	Temp
	#	s	V vs. Ref.	V	V	bits	deg C
	0	0.258333	2.15551E-002	2.15551E-002	2.38992E-004	..........a	-327.66
	1	0.516667	2.15561E-002	2.16074E-002	2.44126E-004	..........a	-327.66
	2	0.775	2.15623E-002	2.16610E-002	2.39726E-004	..........a	-327.66
	3	1.03333	2.15801E-002	2.17103E-002	2.32926E-004	..........a	-327.66
	4	1.29167	2.16123E-002	2.17594E-002	2.29726E-004	..........a	-327.66
	5	1.55	2.16556E-002	2.18109E-002	2.44392E-004	..........a	-327.66
	6	1.80833	2.17045E-002	2.18595E-002	2.37259E-004	..........a	-327.66
	7	2.06667	2.17551E-002	2.19074E-002	2.33992E-004	..........a	-327.66
	8	2.325	2.18054E-002	2.19544E-002	2.43859E-004	..........a	-327.66
	9	2.58333	2.18547E-002	2.20007E-002	2.29326E-004	..........a	-327.66
	10	2.84167	2.19030E-002	2.20456E-002	2.29326E-004	..........a	-327.66
	11	3.1	2.19502E-002	2.20925E-002	2.29192E-004	..........a	-327.66
	12	3.35833	2.19967E-002	2.21397E-002	2.38059E-004	..........a	-327.66
	13	3.61667	2.20429E-002	2.21837E-002	2.22326E-004	..........a	-327.66
	14	3.875	2.20890E-002	2.22295E-002	2.37392E-004	..........a	-327.66
	15	4.13333	2.21349E-002	2.22739E-002	2.21526E-004	..........a	-327.66
	16	4.39167	2.21804E-002	2.23171E-002	2.29392E-004	..........a	-327.66
	17	4.65	2.22254E-002	2.23630E-002	2.50526E-004	..........a	-327.66
	18	4.90833	2.22701E-002	2.24071E-002	2.32926E-004	..........a	-327.66
	19	5.16667	2.23145E-002	2.24496E-002	2.30659E-004	..........a	-327.66
	20	5.425	2.23588E-002	2.24935E-002	2.24259E-004	..........a	-327.66
	21	5.68333	2.24028E-002	2.25345E-002	2.27126E-004	..........a	-327.66
	22	5.94167	2.24462E-002	2.25745E-002	2.18126E-004	..........a	-327.66
	23	6.2	2.24889E-002	2.26188E-002	2.38459E-004	..........a	-327.66
	24	6.45833	2.25310E-002	2.26611E-002	2.29859E-004	..........a	-327.66
	25	6.71667	2.25728E-002	2.26977E-002	2.34326E-004	..........a	-327.66
	26	6.975	2.26144E-002	2.27340E-002	2.37659E-004	..........a	-327.66
	27	7.23333	2.26549E-002	2.27732E-002	2.26526E-004	..........a	-327.66
	28	7.49167	2.26941E-002	2.28132E-002	2.24126E-004	..........a	-327.66
	29	7.75	2.27326E-002	2.28536E-002	2.37526E-004	..........a	-327.66
	30	8.00833	2.27712E-002	2.28914E-002	2.21926E-004	..........a	-327.66
	31	8.26667	2.28103E-002	2.29322E-002	2.13992E-004	..........a	-327.66
	32	8.525	2.28497E-002	2.29722E-002	2.40392E-004	..........a	-327.66
	33	8.78333	2.28892E-002	2.30099E-002	2.29326E-004	..........a	-327.66
	34	9.04167	2.29287E-002	2.30477E-002	2.33792E-004	..........a	-327.66
	35	9.3	2.29680E-002	2.30867E-002	2.19459E-004	..........a	-327.66
	36	9.5583	2.30068E-002	2.31262E-002	2.39059E-004	..........a	-327.66
	37	9.8167	2.30453E-002	2.31637E-002	2.21726E-004	..........a	-327.66
	38	10.075	2.30839E-002	2.32028E-002	2.32392E-004	..........a	-327.66
EOC	QUANT	0.0230839	Open Circuit (V)
PSTATMODEL	IQUANT	7	Pstat Model
PSTATSECTION	LABEL	REF600P-43058	Pstat Section
PSTATSERIALNO	LABEL	43058	Pstat Serial Number
CTRLMODE	IQUANT	1	Control Mode
ELECTROMETER	IQUANT	0	RE=0 or CS=1
IESTAB	IQUANT	2	I/E Stability
CASPEED	IQUANT	4	Control Amp Speed
CONVENTION	IQUANT	1	Current Convention
ICHRANGE	IQUANT	2	Ich Range
ICHRANGEMODE	TOGGLE	F	Ich Auto Range
ICHOFFSETENABLE	TOGGLE	F	Ich Offset Enable
ICHOFFSET	QUANT	0	Ich Offset (V)
ICHFILTER	IQUANT	2	Ich Filter
VCHRANGE	IQUANT	2	Vch Range
VCHRANGEMODE	TOGGLE	F	Vch Auto Range
VCHOFFSETENABLE	TOGGLE	F	Vch Offset Enable
VCHOFFSET	QUANT	0	Vch Offset (V)
VCHFILTER	IQUANT	2	Vch Filter
ACHRANGE	IQUANT	2	Ach Range
ACHOFFSETENABLE	TOGGLE	F	Ach Offset Enable
ACHOFFSET	QUANT	0	Ach Offset (V)
ACHFILTER	IQUANT	1	Ach Filter
IERANGELOWERLIMIT	IQUANT	1	I/E Range Lower Limit
IERANGEMODE	TOGGLE	T	I/E AutoRange
IERANGE	IQUANT	4	I/E Range
POSFEEDENABLE	TOGGLE	F	Positive Feedback IR Comp
POSFEEDRESISTANCE	QUANT	0	Positive Feedback Resistance (ohm)
ACHSELECT	IQUANT	4	Ach Select
SENSECABLEID	IQUANT	7	Sense Cable ID
PWRCABLEID	IQUANT	7	Power Cable ID
DCCALDATE	LABEL	3/22/2024	DC Calibration Date
ACCALDATE	LABEL	3/22/2024	AC Calibration Date
THERMOSELECT	IQUANT	1	Thermo Select
FRAMEWORKVERSION	LABEL	7.8.4	Framework Version
INSTRUMENTVERSION	LABEL	4.42	Instrument Version
CURVE1	TABLE
	Pt	T	Vf	Im	Vu	Sig	Ach	IERange	Over	Temp
	#	s	V vs. Ref.	A	V	V	V	#	bits	deg C
	0	0.2	2.31569E-002	-7.35163E-011	0.00000E+000	2.31000E-002	1.02379E-003	5	..........a	-327.66
	2	0.6	3.16789E-003	-8.33384E-009	0.00000E+000	3.10000E-003	1.01309E-003	5	..........a	-327.66
	4	1	-1.68561E-002	-1.38800E-008	0.00000E+000	-1.69000E-002	9.92292E-004	5	..........a	-327.66
	6	1.4	-3.68122E-002	-1.85695E-008	0.00000E+000	-3.69000E-002	1.02339E-003	5	..........a	-327.66
	8	1.8	-5.68286E-002	-2.28894E-008	0.00000E+000	-5.69000E-002	1.00569E-003	5	..........a	-327.66
	10	2.2	-7.68671E-002	-2.70130E-008	0.00000E+000	-7.69000E-002	1.01679E-003	5	..........a	-327.66
	12	2.6	-9.68436E-002	-3.09312E-008	0.00000E+000	-9.69000E-002	1.03099E-003	5	..........a	-327.66
	14	3	-1.16858E-001	-3.48198E-008	0.00000E+000	-1.16900E-001	1.02859E-003	5	..........a	-327.66
	16	3.4	-1.36833E-001	-3.88033E-008	0.00000E+000	-1.36900E-001	1.03179E-003	5	..........a	-327.66
	18	3.8	-1.56876E-001	-4.28437E-008	0.00000E+000	-1.56900E-001	9.93492E-004	5	..........a	-327.66
	20	4.2	-1.76847E-001	-4.68987E-008	0.00000E+000	-1.76900E-001	1.02759E-003	5	..........a	-327.66
	22	4.6	-1.96844E-001	-5.10037E-008	0.00000E+000	-1.96900E-001	1.02879E-003	5	..........a	-327.66
	24	5	-2.16809E-001	-5.52386E-008	0.00000E+000	-2.16900E-001	1.00439E-003	5	..........a	-327.66
	26	5.4	-2.36842E-001	-5.95621E-008	0.00000E+000	-2.36900E-001	1.04459E-003	5	..........a	-327.66
	28	5.8	-2.56799E-001	-6.40586E-008	0.00000E+000	-2.56900E-001	1.00409E-003	5	..........a	-327.66
	30	6.2	-2.76824E-001	-6.87231E-008	0.00000E+000	-2.76900E-001	1.00619E-003	5	..........a	-327.66
	32	6.6	-2.96780E-001	-7.36063E-008	0.00000E+000	-2.96900E-001	1.00769E-003	5	..........a	-327.66
	34	7	-3.16846E-001	-7.87970E-008	0.00000E+000	-3.16900E-001	1.00689E-003	5	..........a	-327.66
	36	7.4	-3.36768E-001	-8.43632E-008	0.00000E+000	-3.36900E-001	1.01199E-003	5	..........a	-327.66
	38	7.8	-3.56800E-001	-9.01819E-008	0.00000E+000	-3.56900E-001	1.00549E-003	5	..........a	-327.66
	40	8.2	-3.76741E-001	-9.62637E-008	0.00000E+000	-3.76900E-001	1.00699E-003	5	..........a	-327.66
[...]
	1085	217.2	3.70062E-001	-1.92217E-008	0.00000E+000	3.70000E-001	1.02149E-003	5	..........a	-327.66
	1086	217.4	3.59990E-001	-2.16208E-008	0.00000E+000	3.60000E-001	1.01309E-003	5	..........a	-327.66
	1087	217.6	3.50026E-001	-2.39225E-008	0.00000E+000	3.50000E-001	1.01679E-003	5	..........a	-327.66
	1088	217.8	3.40074E-001	-2.61955E-008	0.00000E+000	3.40000E-001	1.00619E-003	5	..........a	-327.66
	1089	218	3.30008E-001	-2.83355E-008	0.00000E+000	3.30000E-001	1.00609E-003	5	..........a	-327.66
	1090	218.2	3.20049E-001	-3.04889E-008	0.00000E+000	3.20000E-001	1.00839E-003	5	..........a	-327.66
	1091	218.4	3.10017E-001	-3.25706E-008	0.00000E+000	3.10000E-001	1.01129E-003	5	..........a	-327.66
	1092	218.6	3.00071E-001	-3.45756E-008	0.00000E+000	3.00000E-001	9.87392E-004	5	..........a	-327.66
	1093	218.8	2.90040E-001	-3.65422E-008	0.00000E+000	2.90000E-001	1.01999E-003	5	..........a	-327.66
	1094	219	2.79973E-001	-3.83673E-008	0.00000E+000	2.80000E-001	1.01629E-003	5	..........a	-327.66
	1095	219.2	2.70071E-001	-4.01552E-008	0.00000E+000	2.70000E-001	9.96692E-004	5	..........a	-327.66
	1096	219.4	2.60051E-001	-4.18589E-008	0.00000E+000	2.60000E-001	1.00209E-003	5	..........a	-327.66
	1097	219.6	2.49993E-001	-4.33889E-008	0.00000E+000	2.50000E-001	1.01539E-003	5	..........a	-327.66
	1098	219.8	2.40089E-001	-4.48355E-008	0.00000E+000	2.40000E-001	1.01419E-003	5	..........a	-327.66
	1099	220	2.30027E-001	-4.62174E-008	0.00000E+000	2.30000E-001	1.01479E-003	5	..........a	-327.66
	1100	220.2	2.20077E-001	-4.74842E-008	0.00000E+000	2.20000E-001	9.85292E-004	5	..........a	-327.66
	1101	220.4	2.10014E-001	-4.86322E-008	0.00000E+000	2.10000E-001	1.00489E-003	5	..........a	-327.66
	1102	220.6	2.00059E-001	-4.97138E-008	0.00000E+000	2.00000E-001	1.02299E-003	5	..........a	-327.66
	1103	220.8	1.90115E-001	-5.06948E-008	0.00000E+000	1.90000E-001	9.96192E-004	5	..........a	-327.66
	1104	221	1.80087E-001	-5.16674E-008	0.00000E+000	1.80000E-001	1.00549E-003	5	..........a	-327.66
	1105	221.2	1.70051E-001	-5.25232E-008	0.00000E+000	1.70000E-001	1.01479E-003	5	..........a	-327.66
	1106	221.4	1.60037E-001	-5.34074E-008	0.00000E+000	1.60000E-001	1.01399E-003	5	..........a	-327.66
	1107	221.6	1.50048E-001	-5.43080E-008	0.00000E+000	1.50000E-001	1.00349E-003	5	..........a	-327.66
	1108	221.8	1.40133E-001	-5.52132E-008	0.00000E+000	1.40000E-001	1.01369E-003	5	..........a	-327.66
	1109	222	1.30066E-001	-5.61600E-008	0.00000E+000	1.30000E-001	1.01389E-003	5	..........a	-327.66
	1110	222.2	1.20050E-001	-5.71751E-008	0.00000E+000	1.20000E-001	1.01869E-003	5	..........a	-327.66
	1111	222.4	1.10091E-001	-5.81062E-008	0.00000E+000	1.10000E-001	1.01939E-003	5	..........a	-327.66
	1112	222.6	1.00135E-001	-5.91308E-008	0.00000E+000	1.00000E-001	1.01259E-003	5	..........a	-327.66
	1113	222.8	9.00964E-002	-6.01692E-008	0.00000E+000	9.00000E-002	1.01379E-003	5	..........a	-327.66
	1114	223	8.00309E-002	-6.12137E-008	0.00000E+000	8.00000E-002	1.00849E-003	5	..........a	-327.66
	1115	223.2	7.00188E-002	-6.22989E-008	0.00000E+000	7.00000E-002	1.01409E-003	5	..........a	-327.66
	1116	223.4	6.01052E-002	-6.33912E-008	0.00000E+000	6.00000E-002	9.92292E-004	5	..........a	-327.66
	1117	223.6	5.00514E-002	-6.44569E-008	0.00000E+000	5.00000E-002	1.03089E-003	5	..........a	-327.66
	1118	223.8	3.99830E-002	-6.57015E-008	0.00000E+000	4.00000E-002	1.00989E-003	5	..........a	-327.66
	1119	224	3.00743E-002	-6.68417E-008	0.00000E+000	3.00000E-002	1.01139E-003	5	..........a	-327.66
	1120	224.2	2.01366E-002	-6.79852E-008	0.00000E+000	2.00000E-002	1.01979E-003	5	..........a	-327.66