Folder: GamryParser/example_project/raw_outputs (part 18)

File: 20240509_ZZZG_GM0016_HL03_E15_CV50.DTA
EXPLAIN
TAG	CV
TITLE	LABEL	Cyclic Voltammetry	Test &Identifier
DATE	LABEL	5/9/2024	Date
TIME	LABEL	15:37:17	Time
NOTES	NOTES	1	&Notes...

PSTAT	PSTAT	REF600P-43058	Potentiostat
VINIT	POTEN	0.00000E+000	T	Initial &E (V)
VLIMIT1	POTEN	8.00000E-001	F	Scan Limit &1 (V)
VLIMIT2	POTEN	-6.00000E-001	F	Scan Limit &2 (V)
VFINAL	POTEN	0.00000E+000	T	Final &E (V)
SCANRATE	QUANT	4.99999E+001	&Scan Rate (mV/s)
STEPSIZE	QUANT	1.00000E+001	St&ep Size (mV)
CYCLES	IQUANT	4	C&ycles (#)
IMODE	SELECTOR	0	I/E Range &Mode
IRANGE	QUANT	1.00000E-005	&Max Current (mA)
AREA	QUANT	1.00000E+000	Electrode &Area (cm^2)
ELECTRODETYPE	SELECTOR	0	Electrode Type
STRIPPING	TOGGLE	F	Used for Stripping
POLARITY	TOGGLE	F	Signal Polarity
CONDIT	TWOPARAM	F	1.50000E+001	0.00000E+000	Conditionin&g	Time(s)	E(V)
DELAY	TWOPARAM	T	1.00000E+001	0.00000E+000	Init. De&lay	Time(s)	Stab.(mV/s)
EQDELAY	QUANT	1.00000E+001	Equil. &Time (s)
IRCOMP	SELECTOR	0	IRCom&p
PFCOR	QUANT	5.00000E+001	PF Corr. (ohm)
SAMPLINGMODE	SELECTOR	1	Sampling &Mode
OCVCURVE	TABLE	39
	Pt	T	Vf	Vm	Ach	Over	Temp
	#	s	V vs. Ref.	V	V	bits	deg C
	0	0.258333	-2.18740E-001	-2.18740E-001	2.46392E-004	..........a	-327.66
	1	0.516667	-2.18744E-001	-2.18923E-001	2.37526E-004	..........a	-327.66
	2	0.775	-2.18765E-001	-2.19104E-001	2.24526E-004	..........a	-327.66
	3	1.03333	-2.18827E-001	-2.19277E-001	2.27592E-004	..........a	-327.66
	4	1.29167	-2.18938E-001	-2.19447E-001	2.32326E-004	..........a	-327.66
	5	1.55	-2.19087E-001	-2.19608E-001	2.33326E-004	..........a	-327.66
	6	1.80833	-2.19255E-001	-2.19776E-001	2.27592E-004	..........a	-327.66
	7	2.06667	-2.19426E-001	-2.19950E-001	2.32059E-004	..........a	-327.66
	8	2.325	-2.19597E-001	-2.20116E-001	2.31792E-004	..........a	-327.66
	9	2.58333	-2.19766E-001	-2.20284E-001	2.35526E-004	..........a	-327.66
	10	2.84167	-2.19935E-001	-2.20465E-001	2.19526E-004	..........a	-327.66
	11	3.1	-2.20105E-001	-2.20645E-001	2.33126E-004	..........a	-327.66
	12	3.35833	-2.20277E-001	-2.20828E-001	2.38326E-004	..........a	-327.66
	13	3.61667	-2.20453E-001	-2.21001E-001	2.24459E-004	..........a	-327.66
	14	3.875	-2.20631E-001	-2.21185E-001	2.37926E-004	..........a	-327.66
	15	4.13333	-2.20811E-001	-2.21379E-001	2.27926E-004	..........a	-327.66
	16	4.39167	-2.20992E-001	-2.21549E-001	2.33592E-004	..........a	-327.66
	17	4.65	-2.21174E-001	-2.21721E-001	2.14926E-004	..........a	-327.66
	18	4.90833	-2.21355E-001	-2.21897E-001	2.29259E-004	..........a	-327.66
	19	5.16667	-2.21533E-001	-2.22072E-001	2.23992E-004	..........a	-327.66
	20	5.425	-2.21709E-001	-2.22248E-001	2.28726E-004	..........a	-327.66
	21	5.68333	-2.21882E-001	-2.22327E-001	2.30326E-004	..........a	-327.66
	22	5.94167	-2.22041E-001	-2.22159E-001	2.32526E-004	..........a	-327.66
	23	6.2	-2.22159E-001	-2.22226E-001	2.26392E-004	..........a	-327.66
	24	6.45833	-2.22220E-001	-2.22373E-001	2.23992E-004	..........a	-327.66
	25	6.71667	-2.22251E-001	-2.22506E-001	2.37126E-004	..........a	-327.66
	26	6.975	-2.22297E-001	-2.22650E-001	2.36126E-004	..........a	-327.66
	27	7.23333	-2.22382E-001	-2.22827E-001	2.40659E-004	..........a	-327.66
	28	7.49167	-2.22504E-001	-2.23002E-001	2.32192E-004	..........a	-327.66
	29	7.75	-2.22651E-001	-2.23179E-001	2.18259E-004	..........a	-327.66
	30	8.00833	-2.22815E-001	-2.23362E-001	2.26859E-004	..........a	-327.66
	31	8.26667	-2.22989E-001	-2.23538E-001	2.44459E-004	..........a	-327.66
	32	8.525	-2.23166E-001	-2.23702E-001	2.35326E-004	..........a	-327.66
	33	8.78333	-2.23343E-001	-2.23852E-001	2.38659E-004	..........a	-327.66
	34	9.04167	-2.23516E-001	-2.24014E-001	2.31992E-004	..........a	-327.66
	35	9.3	-2.23682E-001	-2.24171E-001	2.38659E-004	..........a	-327.66
	36	9.5583	-2.23843E-001	-2.24318E-001	2.18192E-004	..........a	-327.66
	37	9.8167	-2.24000E-001	-2.24457E-001	2.22392E-004	..........a	-327.66
	38	10.075	-2.24153E-001	-2.24597E-001	2.24726E-004	..........a	-327.66
EOC	QUANT	-0.2241533	Open Circuit (V)
PSTATMODEL	IQUANT	7	Pstat Model
PSTATSECTION	LABEL	REF600P-43058	Pstat Section
PSTATSERIALNO	LABEL	43058	Pstat Serial Number
CTRLMODE	IQUANT	1	Control Mode
ELECTROMETER	IQUANT	0	RE=0 or CS=1
IESTAB	IQUANT	2	I/E Stability
CASPEED	IQUANT	4	Control Amp Speed
CONVENTION	IQUANT	1	Current Convention
ICHRANGE	IQUANT	2	Ich Range
ICHRANGEMODE	TOGGLE	F	Ich Auto Range
ICHOFFSETENABLE	TOGGLE	F	Ich Offset Enable
ICHOFFSET	QUANT	0	Ich Offset (V)
ICHFILTER	IQUANT	2	Ich Filter
VCHRANGE	IQUANT	2	Vch Range
VCHRANGEMODE	TOGGLE	F	Vch Auto Range
VCHOFFSETENABLE	TOGGLE	F	Vch Offset Enable
VCHOFFSET	QUANT	0	Vch Offset (V)
VCHFILTER	IQUANT	2	Vch Filter
ACHRANGE	IQUANT	2	Ach Range
ACHOFFSETENABLE	TOGGLE	F	Ach Offset Enable
ACHOFFSET	QUANT	0	Ach Offset (V)
ACHFILTER	IQUANT	1	Ach Filter
IERANGELOWERLIMIT	IQUANT	1	I/E Range Lower Limit
IERANGEMODE	TOGGLE	T	I/E AutoRange
IERANGE	IQUANT	4	I/E Range
POSFEEDENABLE	TOGGLE	F	Positive Feedback IR Comp
POSFEEDRESISTANCE	QUANT	0	Positive Feedback Resistance (ohm)
ACHSELECT	IQUANT	4	Ach Select
SENSECABLEID	IQUANT	7	Sense Cable ID
PWRCABLEID	IQUANT	7	Power Cable ID
DCCALDATE	LABEL	3/22/2024	DC Calibration Date
ACCALDATE	LABEL	3/22/2024	AC Calibration Date
THERMOSELECT	IQUANT	1	Thermo Select
FRAMEWORKVERSION	LABEL	7.8.4	Framework Version
INSTRUMENTVERSION	LABEL	4.42	Instrument Version
CURVE1	TABLE
	Pt	T	Vf	Im	Vu	Sig	Ach	IERange	Over	Temp
	#	s	V vs. Ref.	A	V	V	V	#	bits	deg C
	0	0.2	-2.24074E-001	4.40652E-009	0.00000E+000	-2.24150E-001	9.96692E-004	5	..........a	-327.66
	3	0.8	-1.94081E-001	5.99624E-008	0.00000E+000	-1.94150E-001	9.74592E-004	5	..........a	-327.66
	6	1.4	-1.64225E-001	8.96374E-008	0.00000E+000	-1.64150E-001	9.82992E-004	5	..........a	-327.66
	9	2	-1.34182E-001	1.12783E-007	0.00000E+000	-1.34150E-001	9.97592E-004	5	..........a	-327.66
	12	2.6	-1.04179E-001	1.34398E-007	0.00000E+000	-1.04150E-001	9.93192E-004	5	..........a	-327.66
	15	3.2	-7.40879E-002	1.54904E-007	0.00000E+000	-7.41500E-002	9.90892E-004	5	..........a	-327.66
	18	3.8	-4.41928E-002	1.75022E-007	0.00000E+000	-4.41500E-002	9.80992E-004	5	..........a	-327.66
	21	4.4	-1.41829E-002	1.94592E-007	0.00000E+000	-1.41500E-002	9.79992E-004	5	..........a	-327.66
	24	5	1.58108E-002	2.14510E-007	0.00000E+000	1.58500E-002	9.85192E-004	5	..........a	-327.66
	27	5.6	4.59221E-002	2.35732E-007	0.00000E+000	4.58500E-002	1.00449E-003	5	..........a	-327.66
	30	6.2	7.57754E-002	2.57814E-007	0.00000E+000	7.58500E-002	9.90592E-004	5	..........a	-327.66
	33	6.8	1.05764E-001	2.82581E-007	0.00000E+000	1.05850E-001	9.87192E-004	5	..........a	-327.66
	36	7.4	1.35781E-001	3.13430E-007	0.00000E+000	1.35850E-001	9.86492E-004	5	..........a	-327.66
	39	8	1.65785E-001	3.51228E-007	0.00000E+000	1.65850E-001	9.83992E-004	5	..........a	-327.66
	42	8.6	1.95738E-001	3.80755E-007	0.00000E+000	1.95850E-001	9.93892E-004	5	..........a	-327.66
	45	9.2	2.25642E-001	3.98841E-007	0.00000E+000	2.25850E-001	9.81092E-004	5	..........a	-327.66
	48	9.8	2.55629E-001	4.12411E-007	0.00000E+000	2.55850E-001	9.99892E-004	5	..........a	-327.66
	51	10.4	2.85717E-001	4.19903E-007	0.00000E+000	2.85850E-001	9.84392E-004	5	..........a	-327.66
	54	11	3.15687E-001	4.27491E-007	0.00000E+000	3.15850E-001	9.79992E-004	5	..........a	-327.66
	57	11.6	3.45700E-001	4.37360E-007	0.00000E+000	3.45850E-001	9.81992E-004	5	..........a	-327.66
	60	12.2	3.75628E-001	4.49420E-007	0.00000E+000	3.75850E-001	1.00379E-003	5	..........a	-327.66
[...]
	1085	217.2	-5.69775E-001	-2.42396E-007	0.00000E+000	-5.70000E-001	1.00289E-003	5	..........a	-327.66
	1086	217.4	-5.59770E-001	-2.14946E-007	0.00000E+000	-5.60000E-001	1.00509E-003	5	..........a	-327.66
	1087	217.6	-5.49800E-001	-1.91492E-007	0.00000E+000	-5.50000E-001	1.00509E-003	5	..........a	-327.66
	1088	217.8	-5.39716E-001	-1.71083E-007	0.00000E+000	-5.40000E-001	9.67292E-004	5	..........a	-327.66
	1089	218	-5.29806E-001	-1.52779E-007	0.00000E+000	-5.30000E-001	9.93592E-004	5	..........a	-327.66
	1090	218.2	-5.19821E-001	-1.36139E-007	0.00000E+000	-5.20000E-001	1.00099E-003	5	..........a	-327.66
	1091	218.4	-5.09813E-001	-1.20924E-007	0.00000E+000	-5.10000E-001	9.88492E-004	5	..........a	-327.66
	1092	218.6	-4.99798E-001	-1.07006E-007	0.00000E+000	-5.00000E-001	9.84192E-004	5	..........a	-327.66
	1093	218.8	-4.89824E-001	-9.40192E-008	0.00000E+000	-4.90000E-001	9.92892E-004	5	..........a	-327.66
	1094	219	-4.79839E-001	-8.19606E-008	0.00000E+000	-4.80000E-001	1.00019E-003	5	..........a	-327.66
	1095	219.2	-4.69828E-001	-7.06597E-008	0.00000E+000	-4.70000E-001	9.85092E-004	5	..........a	-327.66
	1096	219.4	-4.59789E-001	-5.99759E-008	0.00000E+000	-4.60000E-001	9.90792E-004	5	..........a	-327.66
	1097	219.6	-4.49835E-001	-4.98899E-008	0.00000E+000	-4.50000E-001	9.81992E-004	5	..........a	-327.66
	1098	219.8	-4.39853E-001	-4.02375E-008	0.00000E+000	-4.40000E-001	9.93692E-004	5	..........a	-327.66
	1099	220	-4.29857E-001	-3.10890E-008	0.00000E+000	-4.30000E-001	1.00599E-003	5	..........a	-327.66
	1100	220.2	-4.19808E-001	-2.22774E-008	0.00000E+000	-4.20000E-001	9.96092E-004	5	..........a	-327.66
	1101	220.4	-4.09870E-001	-1.37696E-008	0.00000E+000	-4.10000E-001	9.95492E-004	5	..........a	-327.66
	1102	220.6	-3.99858E-001	-5.57603E-009	0.00000E+000	-4.00000E-001	9.94192E-004	5	..........a	-327.66
	1103	220.8	-3.89960E-001	2.29017E-009	0.00000E+000	-3.90000E-001	9.90592E-004	5	..........a	-327.66
	1104	221	-3.79856E-001	9.61419E-009	0.00000E+000	-3.80000E-001	9.98392E-004	5	..........a	-327.66
	1105	221.2	-3.69876E-001	1.69463E-008	0.00000E+000	-3.70000E-001	9.97592E-004	5	..........a	-327.66
	1106	221.4	-3.59952E-001	2.43139E-008	0.00000E+000	-3.60000E-001	1.01629E-003	5	..........a	-327.66
	1107	221.6	-3.49907E-001	3.17020E-008	0.00000E+000	-3.50000E-001	1.01499E-003	5	..........a	-327.66
	1108	221.8	-3.39854E-001	3.86691E-008	0.00000E+000	-3.40000E-001	9.96792E-004	5	..........a	-327.66
	1109	222	-3.29942E-001	4.55552E-008	0.00000E+000	-3.30000E-001	1.00389E-003	5	..........a	-327.66
	1110	222.2	-3.19900E-001	5.23184E-008	0.00000E+000	-3.20000E-001	9.94092E-004	5	..........a	-327.66
	1111	222.4	-3.09938E-001	5.89172E-008	0.00000E+000	-3.10000E-001	1.00469E-003	5	..........a	-327.66
	1112	222.6	-2.99888E-001	6.56110E-008	0.00000E+000	-3.00000E-001	9.98392E-004	5	..........a	-327.66
	1113	222.8	-2.89942E-001	7.18455E-008	0.00000E+000	-2.90000E-001	1.01069E-003	5	..........a	-327.66
	1114	223	-2.79946E-001	7.82336E-008	0.00000E+000	-2.80000E-001	9.96392E-004	5	..........a	-327.66
	1115	223.2	-2.69917E-001	8.45664E-008	0.00000E+000	-2.70000E-001	9.92392E-004	5	..........a	-327.66
	1116	223.4	-2.59888E-001	9.07822E-008	0.00000E+000	-2.60000E-001	1.00179E-003	5	..........a	-327.66
	1117	223.6	-2.49926E-001	9.69554E-008	0.00000E+000	-2.50000E-001	9.95292E-004	5	..........a	-327.66
	1118	223.8	-2.39976E-001	1.03001E-007	0.00000E+000	-2.40000E-001	9.94392E-004	5	..........a	-327.66
	1119	224	-2.29982E-001	1.09015E-007	0.00000E+000	-2.30000E-001	9.94092E-004	5	..........a	-327.66
	1120	224.2	-2.19939E-001	1.15276E-007	0.00000E+000	-2.20000E-001	9.85392E-004	5	..........a	-327.66

File: 20240509_ZZZK_GM0016_HL03_E16_CV50.DTA
EXPLAIN
TAG	CV
TITLE	LABEL	Cyclic Voltammetry	Test &Identifier
DATE	LABEL	5/9/2024	Date
TIME	LABEL	15:49:56	Time
NOTES	NOTES	1	&Notes...

PSTAT	PSTAT	REF600P-43058	Potentiostat
VINIT	POTEN	0.00000E+000	T	Initial &E (V)
VLIMIT1	POTEN	8.00000E-001	F	Scan Limit &1 (V)
VLIMIT2	POTEN	-6.00000E-001	F	Scan Limit &2 (V)
VFINAL	POTEN	0.00000E+000	T	Final &E (V)
SCANRATE	QUANT	4.99999E+001	&Scan Rate (mV/s)
STEPSIZE	QUANT	1.00000E+001	St&ep Size (mV)
CYCLES	IQUANT	4	C&ycles (#)
IMODE	SELECTOR	0	I/E Range &Mode
IRANGE	QUANT	1.00000E-005	&Max Current (mA)
AREA	QUANT	1.00000E+000	Electrode &Area (cm^2)
ELECTRODETYPE	SELECTOR	0	Electrode Type
STRIPPING	TOGGLE	F	Used for Stripping
POLARITY	TOGGLE	F	Signal Polarity
CONDIT	TWOPARAM	F	1.50000E+001	0.00000E+000	Conditionin&g	Time(s)	E(V)
DELAY	TWOPARAM	T	1.00000E+001	0.00000E+000	Init. De&lay	Time(s)	Stab.(mV/s)
EQDELAY	QUANT	1.00000E+001	Equil. &Time (s)
IRCOMP	SELECTOR	0	IRCom&p
PFCOR	QUANT	5.00000E+001	PF Corr. (ohm)
SAMPLINGMODE	SELECTOR	1	Sampling &Mode
OCVCURVE	TABLE	39
	Pt	T	Vf	Vm	Ach	Over	Temp
	#	s	V vs. Ref.	V	V	bits	deg C
	0	0.258333	-1.69904E-001	-1.69904E-001	2.27526E-004	..........a	-327.66
	1	0.516667	-1.69909E-001	-1.70191E-001	2.25992E-004	..........a	-327.66
	2	0.775	-1.69940E-001	-1.70288E-001	2.40259E-004	..........a	-327.66
	3	1.03333	-1.70019E-001	-1.70602E-001	2.26259E-004	..........a	-327.66
	4	1.29167	-1.70157E-001	-1.70897E-001	2.31059E-004	..........a	-327.66
	5	1.55	-1.70352E-001	-1.71200E-001	2.38526E-004	..........a	-327.66
	6	1.80833	-1.70597E-001	-1.71498E-001	2.16726E-004	..........a	-327.66
	7	2.06667	-1.70874E-001	-1.71751E-001	2.20926E-004	..........a	-327.66
	8	2.325	-1.71165E-001	-1.72051E-001	2.27659E-004	..........a	-327.66
	9	2.58333	-1.71454E-001	-1.72267E-001	2.39059E-004	..........a	-327.66
	10	2.84167	-1.71735E-001	-1.72566E-001	2.35726E-004	..........a	-327.66
	11	3.1	-1.72007E-001	-1.72874E-001	2.34392E-004	..........a	-327.66
	12	3.35833	-1.72278E-001	-1.73156E-001	2.39726E-004	..........a	-327.66
	13	3.61667	-1.72557E-001	-1.73441E-001	2.39059E-004	..........a	-327.66
	14	3.875	-1.72842E-001	-1.73701E-001	2.31659E-004	..........a	-327.66
	15	4.13333	-1.73128E-001	-1.73990E-001	2.26192E-004	..........a	-327.66
	16	4.39167	-1.73410E-001	-1.74273E-001	2.37459E-004	..........a	-327.66
	17	4.65	-1.73690E-001	-1.74549E-001	2.28992E-004	..........a	-327.66
	18	4.90833	-1.73969E-001	-1.74817E-001	2.28792E-004	..........a	-327.66
	19	5.16667	-1.74247E-001	-1.75077E-001	2.32859E-004	..........a	-327.66
	20	5.425	-1.74522E-001	-1.75343E-001	2.22992E-004	..........a	-327.66
	21	5.68333	-1.74791E-001	-1.75595E-001	2.33792E-004	..........a	-327.66
	22	5.94167	-1.75056E-001	-1.75850E-001	2.35459E-004	..........a	-327.66
	23	6.2	-1.75317E-001	-1.76102E-001	2.39992E-004	..........a	-327.66
	24	6.45833	-1.75574E-001	-1.76336E-001	2.35259E-004	..........a	-327.66
	25	6.71667	-1.75827E-001	-1.76584E-001	2.29326E-004	..........a	-327.66
	26	6.975	-1.76076E-001	-1.76830E-001	2.43126E-004	..........a	-327.66
	27	7.23333	-1.76322E-001	-1.77079E-001	2.34459E-004	..........a	-327.66
	28	7.49167	-1.76567E-001	-1.77324E-001	2.33326E-004	..........a	-327.66
	29	7.75	-1.76812E-001	-1.77575E-001	2.43726E-004	..........a	-327.66
	30	8.00833	-1.77059E-001	-1.77800E-001	2.42726E-004	..........a	-327.66
	31	8.26667	-1.77304E-001	-1.78017E-001	2.38659E-004	..........a	-327.66
	32	8.525	-1.77543E-001	-1.78253E-001	2.43392E-004	..........a	-327.66
	33	8.78333	-1.77777E-001	-1.78496E-001	2.38592E-004	..........a	-327.66
	34	9.04167	-1.78009E-001	-1.78736E-001	2.38459E-004	..........a	-327.66
	35	9.3	-1.78241E-001	-1.78960E-001	2.38859E-004	..........a	-327.66
	36	9.5583	-1.78475E-001	-1.79154E-001	2.49459E-004	..........a	-327.66
	37	9.8167	-1.78706E-001	-1.79390E-001	2.35326E-004	..........a	-327.66
	38	10.075	-1.78931E-001	-1.79640E-001	2.30326E-004	..........a	-327.66
EOC	QUANT	-0.1789312	Open Circuit (V)
PSTATMODEL	IQUANT	7	Pstat Model
PSTATSECTION	LABEL	REF600P-43058	Pstat Section
PSTATSERIALNO	LABEL	43058	Pstat Serial Number
CTRLMODE	IQUANT	1	Control Mode
ELECTROMETER	IQUANT	0	RE=0 or CS=1
IESTAB	IQUANT	2	I/E Stability
CASPEED	IQUANT	4	Control Amp Speed
CONVENTION	IQUANT	1	Current Convention
ICHRANGE	IQUANT	2	Ich Range
ICHRANGEMODE	TOGGLE	F	Ich Auto Range
ICHOFFSETENABLE	TOGGLE	F	Ich Offset Enable
ICHOFFSET	QUANT	0	Ich Offset (V)
ICHFILTER	IQUANT	2	Ich Filter
VCHRANGE	IQUANT	2	Vch Range
VCHRANGEMODE	TOGGLE	F	Vch Auto Range
VCHOFFSETENABLE	TOGGLE	F	Vch Offset Enable
VCHOFFSET	QUANT	0	Vch Offset (V)
VCHFILTER	IQUANT	2	Vch Filter
ACHRANGE	IQUANT	2	Ach Range
ACHOFFSETENABLE	TOGGLE	F	Ach Offset Enable
ACHOFFSET	QUANT	0	Ach Offset (V)
ACHFILTER	IQUANT	1	Ach Filter
IERANGELOWERLIMIT	IQUANT	1	I/E Range Lower Limit
IERANGEMODE	TOGGLE	T	I/E AutoRange
IERANGE	IQUANT	4	I/E Range
POSFEEDENABLE	TOGGLE	F	Positive Feedback IR Comp
POSFEEDRESISTANCE	QUANT	0	Positive Feedback Resistance (ohm)
ACHSELECT	IQUANT	4	Ach Select
SENSECABLEID	IQUANT	7	Sense Cable ID
PWRCABLEID	IQUANT	7	Power Cable ID
DCCALDATE	LABEL	3/22/2024	DC Calibration Date
ACCALDATE	LABEL	3/22/2024	AC Calibration Date
THERMOSELECT	IQUANT	1	Thermo Select
FRAMEWORKVERSION	LABEL	7.8.4	Framework Version
INSTRUMENTVERSION	LABEL	4.42	Instrument Version
CURVE1	TABLE
	Pt	T	Vf	Im	Vu	Sig	Ach	IERange	Over	Temp
	#	s	V vs. Ref.	A	V	V	V	#	bits	deg C
	0	0.2	-1.79012E-001	3.79914E-009	0.00000E+000	-1.78950E-001	1.00049E-003	5	..........a	-327.66
	3	0.8	-1.48937E-001	2.45602E-008	0.00000E+000	-1.48950E-001	1.01969E-003	5	..........a	-327.66
	6	1.4	-1.18879E-001	3.79726E-008	0.00000E+000	-1.18950E-001	1.00429E-003	5	..........a	-327.66
	9	2	-8.88983E-002	4.96996E-008	0.00000E+000	-8.89500E-002	9.96492E-004	5	..........a	-327.66
	12	2.6	-5.89127E-002	6.04851E-008	0.00000E+000	-5.89500E-002	1.01669E-003	5	..........a	-327.66
	15	3.2	-2.89450E-002	7.07740E-008	0.00000E+000	-2.89500E-002	1.00049E-003	5	..........a	-327.66
	18	3.8	1.16524E-003	8.04687E-008	0.00000E+000	1.05000E-003	1.00179E-003	5	..........a	-327.66
	21	4.4	3.10752E-002	9.03549E-008	0.00000E+000	3.10500E-002	1.00459E-003	5	..........a	-327.66
	24	5	6.10481E-002	9.99647E-008	0.00000E+000	6.10500E-002	9.98792E-004	5	..........a	-327.66
	27	5.6	9.10420E-002	1.09622E-007	0.00000E+000	9.10500E-002	9.88392E-004	5	..........a	-327.66
	30	6.2	1.21157E-001	1.19571E-007	0.00000E+000	1.21050E-001	1.00389E-003	5	..........a	-327.66
	33	6.8	1.51070E-001	1.29670E-007	0.00000E+000	1.51050E-001	9.84492E-004	5	..........a	-327.66
	36	7.4	1.81038E-001	1.40029E-007	0.00000E+000	1.81050E-001	9.93892E-004	5	..........a	-327.66
	39	8	2.10997E-001	1.50779E-007	0.00000E+000	2.11050E-001	1.00649E-003	5	..........a	-327.66
	42	8.6	2.41057E-001	1.62090E-007	0.00000E+000	2.41050E-001	9.92792E-004	5	..........a	-327.66
	45	9.2	2.70764E-001	1.74105E-007	0.00000E+000	2.71050E-001	9.93392E-004	5	..........a	-327.66
	48	9.8	3.00898E-001	1.86895E-007	0.00000E+000	3.01050E-001	1.00289E-003	5	..........a	-327.66
	51	10.4	3.30979E-001	2.00504E-007	0.00000E+000	3.31050E-001	9.93492E-004	5	..........a	-327.66
	54	11	3.61070E-001	2.14966E-007	0.00000E+000	3.61050E-001	9.94092E-004	5	..........a	-327.66
	57	11.6	3.90975E-001	2.30183E-007	0.00000E+000	3.91050E-001	1.00349E-003	5	..........a	-327.66
	60	12.2	4.20954E-001	2.46078E-007	0.00000E+000	4.21050E-001	9.91292E-004	5	..........a	-327.66
[...]
	1085	217.2	-5.29814E-001	-1.45004E-007	0.00000E+000	-5.30000E-001	9.93492E-004	5	..........a	-327.66
	1086	217.4	-5.19831E-001	-1.36001E-007	0.00000E+000	-5.20000E-001	9.86292E-004	5	..........a	-327.66
	1087	217.6	-5.09813E-001	-1.27488E-007	0.00000E+000	-5.10000E-001	9.91892E-004	5	..........a	-327.66
	1088	217.8	-4.99792E-001	-1.19391E-007	0.00000E+000	-5.00000E-001	9.80792E-004	5	..........a	-327.66
	1089	218	-4.89813E-001	-1.11750E-007	0.00000E+000	-4.90000E-001	1.00519E-003	5	..........a	-327.66
	1090	218.2	-4.79830E-001	-1.04471E-007	0.00000E+000	-4.80000E-001	9.86792E-004	5	..........a	-327.66
	1091	218.4	-4.69826E-001	-9.72978E-008	0.00000E+000	-4.70000E-001	9.82692E-004	5	..........a	-327.66
	1092	218.6	-4.59773E-001	-9.05583E-008	0.00000E+000	-4.60000E-001	9.87092E-004	5	..........a	-327.66
	1093	218.8	-4.49831E-001	-8.40265E-008	0.00000E+000	-4.50000E-001	9.86692E-004	5	..........a	-327.66
	1094	219	-4.39837E-001	-7.76798E-008	0.00000E+000	-4.40000E-001	9.85592E-004	5	..........a	-327.66
	1095	219.2	-4.29839E-001	-7.16068E-008	0.00000E+000	-4.30000E-001	9.76892E-004	5	..........a	-327.66
	1096	219.4	-4.19786E-001	-6.56540E-008	0.00000E+000	-4.20000E-001	9.78792E-004	5	..........a	-327.66
	1097	219.6	-4.09845E-001	-5.99276E-008	0.00000E+000	-4.10000E-001	9.80292E-004	5	..........a	-327.66
	1098	219.8	-3.99847E-001	-5.42805E-008	0.00000E+000	-4.00000E-001	9.83192E-004	5	..........a	-327.66
	1099	220	-3.89904E-001	-4.89662E-008	0.00000E+000	-3.90000E-001	1.00439E-003	5	..........a	-327.66
	1100	220.2	-3.79812E-001	-4.36488E-008	0.00000E+000	-3.80000E-001	9.68092E-004	5	..........a	-327.66
	1101	220.4	-3.69874E-001	-3.85190E-008	0.00000E+000	-3.70000E-001	9.88492E-004	5	..........a	-327.66
	1102	220.6	-3.59915E-001	-3.34685E-008	0.00000E+000	-3.60000E-001	9.99792E-004	5	..........a	-327.66
	1103	220.8	-3.49874E-001	-2.85788E-008	0.00000E+000	-3.50000E-001	9.73592E-004	5	..........a	-327.66
	1104	221	-3.39823E-001	-2.37958E-008	0.00000E+000	-3.40000E-001	9.89392E-004	5	..........a	-327.66
	1105	221.2	-3.29882E-001	-1.91330E-008	0.00000E+000	-3.30000E-001	1.00579E-003	5	..........a	-327.66
	1106	221.4	-3.19858E-001	-1.45698E-008	0.00000E+000	-3.20000E-001	9.82192E-004	5	..........a	-327.66
	1107	221.6	-3.09894E-001	-1.01058E-008	0.00000E+000	-3.10000E-001	9.92392E-004	5	..........a	-327.66
	1108	221.8	-2.99866E-001	-5.78800E-009	0.00000E+000	-3.00000E-001	9.85392E-004	5	..........a	-327.66
	1109	222	-2.89944E-001	-1.47475E-009	0.00000E+000	-2.90000E-001	9.81892E-004	5	..........a	-327.66
	1110	222.2	-2.79961E-001	2.74744E-009	0.00000E+000	-2.80000E-001	9.97592E-004	5	..........a	-327.66
	1111	222.4	-2.69883E-001	6.79253E-009	0.00000E+000	-2.70000E-001	9.85092E-004	5	..........a	-327.66
	1112	222.6	-2.59831E-001	1.08610E-008	0.00000E+000	-2.60000E-001	9.67292E-004	5	..........a	-327.66
	1113	222.8	-2.49893E-001	1.48575E-008	0.00000E+000	-2.50000E-001	9.92192E-004	5	..........a	-327.66
	1114	223	-2.39945E-001	1.87553E-008	0.00000E+000	-2.40000E-001	9.88992E-004	5	..........a	-327.66
	1115	223.2	-2.29965E-001	2.25509E-008	0.00000E+000	-2.30000E-001	1.00059E-003	5	..........a	-327.66
	1116	223.4	-2.19879E-001	2.63289E-008	0.00000E+000	-2.20000E-001	9.77992E-004	5	..........a	-327.66
	1117	223.6	-2.09925E-001	3.00625E-008	0.00000E+000	-2.10000E-001	1.01219E-003	5	..........a	-327.66
	1118	223.8	-1.99994E-001	3.36876E-008	0.00000E+000	-2.00000E-001	9.94192E-004	5	..........a	-327.66
	1119	224	-1.90061E-001	3.72797E-008	0.00000E+000	-1.90000E-001	9.87492E-004	5	..........a	-327.66
	1120	224.2	-1.79946E-001	4.06826E-008	0.00000E+000	-1.80000E-001	9.88892E-004	5	..........a	-327.66