Folder: GamryParser/data/raw/batch_data (part 14)

File: 20240424_ZM_GM0016_HL03_E10_CV50.DTA
EXPLAIN
TAG	CV
TITLE	LABEL	Cyclic Voltammetry	Test &Identifier
DATE	LABEL	4/24/2024	Date
TIME	LABEL	18:53:39	Time
NOTES	NOTES	1	&Notes...

PSTAT	PSTAT	REF600P-43058	Potentiostat
VINIT	POTEN	0.00000E+000	T	Initial &E (V)
VLIMIT1	POTEN	-6.00000E-001	F	Scan Limit &1 (V)
VLIMIT2	POTEN	8.00000E-001	F	Scan Limit &2 (V)
VFINAL	POTEN	0.00000E+000	T	Final &E (V)
SCANRATE	QUANT	4.99999E+001	&Scan Rate (mV/s)
STEPSIZE	QUANT	1.00000E+001	St&ep Size (mV)
CYCLES	IQUANT	4	C&ycles (#)
IMODE	SELECTOR	0	I/E Range &Mode
IRANGE	QUANT	1.00000E-005	&Max Current (mA)
AREA	QUANT	1.00000E+000	Electrode &Area (cm^2)
ELECTRODETYPE	SELECTOR	0	Electrode Type
STRIPPING	TOGGLE	F	Used for Stripping
POLARITY	TOGGLE	F	Signal Polarity
CONDIT	TWOPARAM	F	1.50000E+001	0.00000E+000	Conditionin&g	Time(s)	E(V)
DELAY	TWOPARAM	T	1.00000E+001	0.00000E+000	Init. De&lay	Time(s)	Stab.(mV/s)
EQDELAY	QUANT	1.00000E+001	Equil. &Time (s)
IRCOMP	SELECTOR	0	IRCom&p
PFCOR	QUANT	5.00000E+001	PF Corr. (ohm)
SAMPLINGMODE	SELECTOR	1	Sampling &Mode
OCVCURVE	TABLE	39
	Pt	T	Vf	Vm	Ach	Over	Temp
	#	s	V vs. Ref.	V	V	bits	deg C
	0	0.258333	-8.10836E-002	-8.10836E-002	2.28792E-004	..........a	-327.66
	1	0.516667	-8.10861E-002	-8.12113E-002	2.41859E-004	..........a	-327.66
	2	0.775	-8.11011E-002	-8.13335E-002	2.24126E-004	..........a	-327.66
	3	1.03333	-8.11436E-002	-8.14547E-002	2.41992E-004	..........a	-327.66
	4	1.29167	-8.12205E-002	-8.15810E-002	2.29192E-004	..........a	-327.66
	5	1.55	-8.13245E-002	-8.17001E-002	2.50192E-004	..........a	-327.66
	6	1.80833	-8.14432E-002	-8.18284E-002	2.24126E-004	..........a	-327.66
	7	2.06667	-8.15670E-002	-8.19430E-002	2.34792E-004	..........a	-327.66
	8	2.325	-8.16915E-002	-8.20777E-002	2.29126E-004	..........a	-327.66
	9	2.58333	-8.18153E-002	-8.21901E-002	2.49659E-004	..........a	-327.66
	10	2.84167	-8.19388E-002	-8.23171E-002	2.32859E-004	..........a	-327.66
	11	3.1	-8.20615E-002	-8.24264E-002	2.46726E-004	..........a	-327.66
	12	3.35833	-8.21830E-002	-8.25566E-002	2.44126E-004	..........a	-327.66
	13	3.61667	-8.23032E-002	-8.26628E-002	2.38859E-004	..........a	-327.66
	14	3.875	-8.24224E-002	-8.27884E-002	2.35059E-004	..........a	-327.66
	15	4.13333	-8.25407E-002	-8.28983E-002	2.47992E-004	..........a	-327.66
	16	4.39167	-8.26581E-002	-8.30101E-002	2.46726E-004	..........a	-327.66
	17	4.65	-8.27743E-002	-8.31253E-002	2.40726E-004	..........a	-327.66
	18	4.90833	-8.28888E-002	-8.32284E-002	2.51192E-004	..........a	-327.66
	19	5.16667	-8.30017E-002	-8.33486E-002	2.44526E-004	..........a	-327.66
	20	5.425	-8.31134E-002	-8.34498E-002	2.49259E-004	..........a	-327.66
	21	5.68333	-8.32240E-002	-8.35480E-002	2.41259E-004	..........a	-327.66
	22	5.94167	-8.33327E-002	-8.36511E-002	2.43059E-004	..........a	-327.66
	23	6.2	-8.34385E-002	-8.37560E-002	2.37726E-004	..........a	-327.66
	24	6.45833	-8.35419E-002	-8.38535E-002	2.46926E-004	..........a	-327.66
	25	6.71667	-8.36440E-002	-8.39501E-002	2.50859E-004	..........a	-327.66
	26	6.975	-8.37450E-002	-8.40524E-002	2.33926E-004	..........a	-327.66
	27	7.23333	-8.38452E-002	-8.41584E-002	2.43059E-004	..........a	-327.66
	28	7.49167	-8.39452E-002	-8.42499E-002	2.50259E-004	..........a	-327.66
	29	7.75	-8.40454E-002	-8.43460E-002	2.45926E-004	..........a	-327.66
	30	8.00833	-8.41448E-002	-8.44459E-002	2.41059E-004	..........a	-327.66
	31	8.26667	-8.42431E-002	-8.45525E-002	2.28992E-004	..........a	-327.66
	32	8.525	-8.43415E-002	-8.46468E-002	2.37859E-004	..........a	-327.66
	33	8.78333	-8.44406E-002	-8.47407E-002	2.51326E-004	..........a	-327.66
	34	9.04167	-8.45395E-002	-8.48276E-002	2.38326E-004	..........a	-327.66
	35	9.3	-8.46365E-002	-8.49269E-002	2.39926E-004	..........a	-327.66
	36	9.5583	-8.47313E-002	-8.50226E-002	2.31259E-004	..........a	-327.66
	37	9.8167	-8.48253E-002	-8.51202E-002	2.29192E-004	..........a	-327.66
	38	10.075	-8.49198E-002	-8.52067E-002	2.40059E-004	..........a	-327.66
EOC	QUANT	-0.0849198	Open Circuit (V)
PSTATMODEL	IQUANT	7	Pstat Model
PSTATSECTION	LABEL	REF600P-43058	Pstat Section
PSTATSERIALNO	LABEL	43058	Pstat Serial Number
CTRLMODE	IQUANT	1	Control Mode
ELECTROMETER	IQUANT	0	RE=0 or CS=1
IESTAB	IQUANT	2	I/E Stability
CASPEED	IQUANT	4	Control Amp Speed
CONVENTION	IQUANT	1	Current Convention
ICHRANGE	IQUANT	2	Ich Range
ICHRANGEMODE	TOGGLE	F	Ich Auto Range
ICHOFFSETENABLE	TOGGLE	F	Ich Offset Enable
ICHOFFSET	QUANT	0	Ich Offset (V)
ICHFILTER	IQUANT	2	Ich Filter
VCHRANGE	IQUANT	2	Vch Range
VCHRANGEMODE	TOGGLE	F	Vch Auto Range
VCHOFFSETENABLE	TOGGLE	F	Vch Offset Enable
VCHOFFSET	QUANT	0	Vch Offset (V)
VCHFILTER	IQUANT	2	Vch Filter
ACHRANGE	IQUANT	2	Ach Range
ACHOFFSETENABLE	TOGGLE	F	Ach Offset Enable
ACHOFFSET	QUANT	0	Ach Offset (V)
ACHFILTER	IQUANT	1	Ach Filter
IERANGELOWERLIMIT	IQUANT	1	I/E Range Lower Limit
IERANGEMODE	TOGGLE	T	I/E AutoRange
IERANGE	IQUANT	4	I/E Range
POSFEEDENABLE	TOGGLE	F	Positive Feedback IR Comp
POSFEEDRESISTANCE	QUANT	0	Positive Feedback Resistance (ohm)
ACHSELECT	IQUANT	4	Ach Select
SENSECABLEID	IQUANT	7	Sense Cable ID
PWRCABLEID	IQUANT	7	Power Cable ID
DCCALDATE	LABEL	3/22/2024	DC Calibration Date
ACCALDATE	LABEL	3/22/2024	AC Calibration Date
THERMOSELECT	IQUANT	1	Thermo Select
FRAMEWORKVERSION	LABEL	7.8.4	Framework Version
INSTRUMENTVERSION	LABEL	4.42	Instrument Version
CURVE1	TABLE
	Pt	T	Vf	Im	Vu	Sig	Ach	IERange	Over	Temp
	#	s	V vs. Ref.	A	V	V	V	#	bits	deg C
	0	0.2	-8.48769E-002	7.39854E-010	0.00000E+000	-8.49000E-002	9.95292E-004	5	..........a	-327.66
	2	0.6	-1.04899E-001	-3.21351E-009	0.00000E+000	-1.04900E-001	1.00559E-003	5	..........a	-327.66
	4	1	-1.24883E-001	-6.26963E-009	0.00000E+000	-1.24900E-001	9.98392E-004	5	..........a	-327.66
	6	1.4	-1.44855E-001	-9.19715E-009	0.00000E+000	-1.44900E-001	9.82992E-004	5	..........a	-327.66
	8	1.8	-1.64813E-001	-1.20507E-008	0.00000E+000	-1.64900E-001	9.79592E-004	5	..........a	-327.66
	10	2.2	-1.84859E-001	-1.47639E-008	0.00000E+000	-1.84900E-001	9.81592E-004	5	..........a	-327.66
	12	2.6	-2.04871E-001	-1.73596E-008	0.00000E+000	-2.04900E-001	9.87892E-004	5	..........a	-327.66
	14	3	-2.24811E-001	-1.99384E-008	0.00000E+000	-2.24900E-001	1.00209E-003	5	..........a	-327.66
	16	3.4	-2.44815E-001	-2.25689E-008	0.00000E+000	-2.44900E-001	1.00529E-003	5	..........a	-327.66
	18	3.8	-2.64794E-001	-2.52678E-008	0.00000E+000	-2.64900E-001	9.83192E-004	5	..........a	-327.66
	20	4.2	-2.84839E-001	-2.81056E-008	0.00000E+000	-2.84900E-001	1.02069E-003	5	..........a	-327.66
	22	4.6	-3.04785E-001	-3.11400E-008	0.00000E+000	-3.04900E-001	9.91792E-004	5	..........a	-327.66
	24	5	-3.24792E-001	-3.42404E-008	0.00000E+000	-3.24900E-001	9.85992E-004	5	..........a	-327.66
	26	5.4	-3.44792E-001	-3.75438E-008	0.00000E+000	-3.44900E-001	1.00139E-003	5	..........a	-327.66
	28	5.8	-3.64818E-001	-4.08698E-008	0.00000E+000	-3.64900E-001	9.94692E-004	5	..........a	-327.66
	30	6.2	-3.84782E-001	-4.41731E-008	0.00000E+000	-3.84900E-001	9.87792E-004	5	..........a	-327.66
	32	6.6	-4.04808E-001	-4.73704E-008	0.00000E+000	-4.04900E-001	1.00659E-003	5	..........a	-327.66
	34	7	-4.24725E-001	-5.04462E-008	0.00000E+000	-4.24900E-001	1.00169E-003	5	..........a	-327.66
	36	7.4	-4.44837E-001	-5.33603E-008	0.00000E+000	-4.44900E-001	1.00889E-003	5	..........a	-327.66
	38	7.8	-4.64707E-001	-5.61819E-008	0.00000E+000	-4.64900E-001	9.80792E-004	5	..........a	-327.66
[...]
	1083	216.8	2.70106E-001	-2.69879E-008	0.00000E+000	2.70000E-001	9.74492E-004	5	..........a	-327.66
	1084	217	2.60081E-001	-3.02731E-008	0.00000E+000	2.60000E-001	9.89792E-004	5	..........a	-327.66
	1085	217.2	2.50031E-001	-3.36648E-008	0.00000E+000	2.50000E-001	1.00469E-003	5	..........a	-327.66
	1086	217.4	2.40064E-001	-3.71520E-008	0.00000E+000	2.40000E-001	9.95192E-004	5	..........a	-327.66
	1087	217.6	2.30036E-001	-4.06291E-008	0.00000E+000	2.30000E-001	9.98192E-004	5	..........a	-327.66
	1088	217.8	2.20078E-001	-4.39943E-008	0.00000E+000	2.20000E-001	9.88992E-004	5	..........a	-327.66
	1089	218	2.10055E-001	-4.70776E-008	0.00000E+000	2.10000E-001	9.93192E-004	5	..........a	-327.66
	1090	218.2	2.00111E-001	-4.97060E-008	0.00000E+000	2.00000E-001	1.00349E-003	5	..........a	-327.66
	1091	218.4	1.90132E-001	-5.18174E-008	0.00000E+000	1.90000E-001	9.83692E-004	5	..........a	-327.66
	1092	218.6	1.80130E-001	-5.31916E-008	0.00000E+000	1.80000E-001	9.80892E-004	5	..........a	-327.66
	1093	218.8	1.70095E-001	-5.37905E-008	0.00000E+000	1.70000E-001	1.00989E-003	5	..........a	-327.66
	1094	219	1.60084E-001	-5.35741E-008	0.00000E+000	1.60000E-001	9.92992E-004	5	..........a	-327.66
	1095	219.2	1.50084E-001	-5.25498E-008	0.00000E+000	1.50000E-001	9.82592E-004	5	..........a	-327.66
	1096	219.4	1.40141E-001	-5.08137E-008	0.00000E+000	1.40000E-001	9.76192E-004	5	..........a	-327.66
	1097	219.6	1.30082E-001	-4.84891E-008	0.00000E+000	1.30000E-001	1.00609E-003	5	..........a	-327.66
	1098	219.8	1.20112E-001	-4.57198E-008	0.00000E+000	1.20000E-001	9.75692E-004	5	..........a	-327.66
	1099	220	1.10114E-001	-4.27359E-008	0.00000E+000	1.10000E-001	9.90792E-004	5	..........a	-327.66
	1100	220.2	1.00128E-001	-3.95578E-008	0.00000E+000	1.00000E-001	9.86592E-004	5	..........a	-327.66
	1101	220.4	9.01103E-002	-3.66525E-008	0.00000E+000	9.00000E-002	9.71592E-004	5	..........a	-327.66
	1102	220.6	8.00645E-002	-3.40777E-008	0.00000E+000	8.00000E-002	9.98292E-004	5	..........a	-327.66
	1103	220.8	7.00357E-002	-3.20919E-008	0.00000E+000	7.00000E-002	1.02019E-003	5	..........a	-327.66
	1104	221	6.01250E-002	-3.05345E-008	0.00000E+000	6.00000E-002	9.88892E-004	5	..........a	-327.66
	1105	221.2	5.00839E-002	-2.95164E-008	0.00000E+000	5.00000E-002	1.01129E-003	5	..........a	-327.66
	1106	221.4	4.00446E-002	-2.88186E-008	0.00000E+000	4.00000E-002	1.00709E-003	5	..........a	-327.66
	1107	221.6	3.00652E-002	-2.84240E-008	0.00000E+000	3.00000E-002	1.00549E-003	5	..........a	-327.66
	1108	221.8	2.01476E-002	-2.83661E-008	0.00000E+000	2.00000E-002	1.00439E-003	5	..........a	-327.66
	1109	222	1.01116E-002	-2.84732E-008	0.00000E+000	1.00000E-002	9.91592E-004	5	..........a	-327.66
	1110	222.2	5.81917E-005	-2.89369E-008	0.00000E+000	7.45058E-009	1.00269E-003	5	..........a	-327.66
	1111	222.4	-9.87251E-003	-2.90311E-008	0.00000E+000	-1.00000E-002	9.93592E-004	5	..........a	-327.66
	1112	222.6	-1.98944E-002	-2.92977E-008	0.00000E+000	-2.00000E-002	1.00009E-003	5	..........a	-327.66
	1113	222.8	-2.99080E-002	-2.95426E-008	0.00000E+000	-3.00000E-002	9.87792E-004	5	..........a	-327.66
	1114	223	-3.98965E-002	-3.00542E-008	0.00000E+000	-4.00000E-002	9.80592E-004	5	..........a	-327.66
	1115	223.2	-4.99025E-002	-3.10059E-008	0.00000E+000	-5.00000E-002	1.00359E-003	5	..........a	-327.66
	1116	223.4	-5.98795E-002	-3.13926E-008	0.00000E+000	-6.00000E-002	9.66992E-004	5	..........a	-327.66
	1117	223.6	-6.99064E-002	-3.16555E-008	0.00000E+000	-7.00000E-002	9.80292E-004	5	..........a	-327.66
	1118	223.8	-7.99496E-002	-3.22584E-008	0.00000E+000	-8.00000E-002	9.95492E-004	5	..........a	-327.66

File: 20240424_ZU_GM0016_HL03_E12_CV50.DTA
EXPLAIN
TAG	CV
TITLE	LABEL	Cyclic Voltammetry	Test &Identifier
DATE	LABEL	4/24/2024	Date
TIME	LABEL	19:18:16	Time
NOTES	NOTES	1	&Notes...

PSTAT	PSTAT	REF600P-43058	Potentiostat
VINIT	POTEN	0.00000E+000	T	Initial &E (V)
VLIMIT1	POTEN	-6.00000E-001	F	Scan Limit &1 (V)
VLIMIT2	POTEN	8.00000E-001	F	Scan Limit &2 (V)
VFINAL	POTEN	0.00000E+000	T	Final &E (V)
SCANRATE	QUANT	4.99999E+001	&Scan Rate (mV/s)
STEPSIZE	QUANT	1.00000E+001	St&ep Size (mV)
CYCLES	IQUANT	4	C&ycles (#)
IMODE	SELECTOR	0	I/E Range &Mode
IRANGE	QUANT	1.00000E-005	&Max Current (mA)
AREA	QUANT	1.00000E+000	Electrode &Area (cm^2)
ELECTRODETYPE	SELECTOR	0	Electrode Type
STRIPPING	TOGGLE	F	Used for Stripping
POLARITY	TOGGLE	F	Signal Polarity
CONDIT	TWOPARAM	F	1.50000E+001	0.00000E+000	Conditionin&g	Time(s)	E(V)
DELAY	TWOPARAM	T	1.00000E+001	0.00000E+000	Init. De&lay	Time(s)	Stab.(mV/s)
EQDELAY	QUANT	1.00000E+001	Equil. &Time (s)
IRCOMP	SELECTOR	0	IRCom&p
PFCOR	QUANT	5.00000E+001	PF Corr. (ohm)
SAMPLINGMODE	SELECTOR	1	Sampling &Mode
OCVCURVE	TABLE	39
	Pt	T	Vf	Vm	Ach	Over	Temp
	#	s	V vs. Ref.	V	V	bits	deg C
	0	0.258333	-3.92755E-002	-3.92755E-002	2.52792E-004	..........a	-327.66
	1	0.516667	-3.92780E-002	-3.94050E-002	2.45859E-004	..........a	-327.66
	2	0.775	-3.92934E-002	-3.95393E-002	2.57592E-004	..........a	-327.66
	3	1.03333	-3.93381E-002	-3.96872E-002	2.53726E-004	..........a	-327.66
	4	1.29167	-3.94208E-002	-3.98134E-002	2.42259E-004	..........a	-327.66
	5	1.55	-3.95346E-002	-3.99424E-002	2.67726E-004	..........a	-327.66
	6	1.80833	-3.96647E-002	-4.00741E-002	2.52459E-004	..........a	-327.66
	7	2.06667	-3.97987E-002	-4.01978E-002	2.47792E-004	..........a	-327.66
	8	2.325	-3.99312E-002	-4.03293E-002	2.58659E-004	..........a	-327.66
	9	2.58333	-4.00614E-002	-4.04503E-002	2.44926E-004	..........a	-327.66
	10	2.84167	-4.01894E-002	-4.05717E-002	2.66392E-004	..........a	-327.66
	11	3.1	-4.03154E-002	-4.06885E-002	2.37326E-004	..........a	-327.66
	12	3.35833	-4.04391E-002	-4.08114E-002	2.66526E-004	..........a	-327.66
	13	3.61667	-4.05607E-002	-4.09256E-002	2.44992E-004	..........a	-327.66
	14	3.875	-4.06807E-002	-4.10452E-002	2.50726E-004	..........a	-327.66
	15	4.13333	-4.07992E-002	-4.11444E-002	2.58926E-004	..........a	-327.66
	16	4.39167	-4.09157E-002	-4.12655E-002	2.42592E-004	..........a	-327.66
	17	4.65	-4.10297E-002	-4.13715E-002	2.59592E-004	..........a	-327.66
	18	4.90833	-4.11416E-002	-4.14684E-002	2.58459E-004	..........a	-327.66
	19	5.16667	-4.12516E-002	-4.15899E-002	2.41992E-004	..........a	-327.66
	20	5.425	-4.13601E-002	-4.16914E-002	2.61192E-004	..........a	-327.66
	21	5.68333	-4.14678E-002	-4.17859E-002	2.57192E-004	..........a	-327.66
	22	5.94167	-4.15747E-002	-4.19041E-002	2.41326E-004	..........a	-327.66
	23	6.2	-4.16804E-002	-4.20040E-002	2.42192E-004	..........a	-327.66
	24	6.45833	-4.17853E-002	-4.20931E-002	2.63459E-004	..........a	-327.66
	25	6.71667	-4.18891E-002	-4.21992E-002	2.36859E-004	..........a	-327.66
	26	6.975	-4.19908E-002	-4.22957E-002	2.42726E-004	..........a	-327.66
	27	7.23333	-4.20905E-002	-4.23887E-002	2.42326E-004	..........a	-327.66
	28	7.49167	-4.21888E-002	-4.24823E-002	2.54392E-004	..........a	-327.66
	29	7.75	-4.22855E-002	-4.25697E-002	2.49659E-004	..........a	-327.66
	30	8.00833	-4.23802E-002	-4.26603E-002	2.64192E-004	..........a	-327.66
	31	8.26667	-4.24726E-002	-4.27474E-002	2.45259E-004	..........a	-327.66
	32	8.525	-4.25631E-002	-4.28385E-002	2.51392E-004	..........a	-327.66
	33	8.78333	-4.26526E-002	-4.29260E-002	2.58326E-004	..........a	-327.66
	34	9.04167	-4.27418E-002	-4.30195E-002	2.36526E-004	..........a	-327.66
	35	9.3	-4.28310E-002	-4.31039E-002	2.36926E-004	..........a	-327.66
	36	9.5583	-4.29204E-002	-4.31930E-002	2.36192E-004	..........a	-327.66
	37	9.8167	-4.30093E-002	-4.32728E-002	2.46859E-004	..........a	-327.66
	38	10.075	-4.30969E-002	-4.33570E-002	2.62792E-004	..........a	-327.66
EOC	QUANT	-0.0430969	Open Circuit (V)
PSTATMODEL	IQUANT	7	Pstat Model
PSTATSECTION	LABEL	REF600P-43058	Pstat Section
PSTATSERIALNO	LABEL	43058	Pstat Serial Number
CTRLMODE	IQUANT	1	Control Mode
ELECTROMETER	IQUANT	0	RE=0 or CS=1
IESTAB	IQUANT	2	I/E Stability
CASPEED	IQUANT	4	Control Amp Speed
CONVENTION	IQUANT	1	Current Convention
ICHRANGE	IQUANT	2	Ich Range
ICHRANGEMODE	TOGGLE	F	Ich Auto Range
ICHOFFSETENABLE	TOGGLE	F	Ich Offset Enable
ICHOFFSET	QUANT	0	Ich Offset (V)
ICHFILTER	IQUANT	2	Ich Filter
VCHRANGE	IQUANT	2	Vch Range
VCHRANGEMODE	TOGGLE	F	Vch Auto Range
VCHOFFSETENABLE	TOGGLE	F	Vch Offset Enable
VCHOFFSET	QUANT	0	Vch Offset (V)
VCHFILTER	IQUANT	2	Vch Filter
ACHRANGE	IQUANT	2	Ach Range
ACHOFFSETENABLE	TOGGLE	F	Ach Offset Enable
ACHOFFSET	QUANT	0	Ach Offset (V)
ACHFILTER	IQUANT	1	Ach Filter
IERANGELOWERLIMIT	IQUANT	1	I/E Range Lower Limit
IERANGEMODE	TOGGLE	T	I/E AutoRange
IERANGE	IQUANT	4	I/E Range
POSFEEDENABLE	TOGGLE	F	Positive Feedback IR Comp
POSFEEDRESISTANCE	QUANT	0	Positive Feedback Resistance (ohm)
ACHSELECT	IQUANT	4	Ach Select
SENSECABLEID	IQUANT	7	Sense Cable ID
PWRCABLEID	IQUANT	7	Power Cable ID
DCCALDATE	LABEL	3/22/2024	DC Calibration Date
ACCALDATE	LABEL	3/22/2024	AC Calibration Date
THERMOSELECT	IQUANT	1	Thermo Select
FRAMEWORKVERSION	LABEL	7.8.4	Framework Version
INSTRUMENTVERSION	LABEL	4.42	Instrument Version
CURVE1	TABLE
	Pt	T	Vf	Im	Vu	Sig	Ach	IERange	Over	Temp
	#	s	V vs. Ref.	A	V	V	V	#	bits	deg C
	0	0.2	-4.30592E-002	6.26780E-010	0.00000E+000	-4.31000E-002	1.01799E-003	5	..........a	-327.66
	2	0.6	-6.29748E-002	-3.78514E-009	0.00000E+000	-6.31000E-002	1.00159E-003	5	..........a	-327.66
	4	1	-8.30485E-002	-6.90288E-009	0.00000E+000	-8.31000E-002	1.01199E-003	5	..........a	-327.66
	6	1.4	-1.02987E-001	-9.76499E-009	0.00000E+000	-1.03100E-001	1.00409E-003	5	..........a	-327.66
	8	1.8	-1.23096E-001	-1.25855E-008	0.00000E+000	-1.23100E-001	1.01289E-003	5	..........a	-327.66
	10	2.2	-1.43022E-001	-1.53553E-008	0.00000E+000	-1.43100E-001	1.00629E-003	5	..........a	-327.66
	12	2.6	-1.63064E-001	-1.80084E-008	0.00000E+000	-1.63100E-001	1.02959E-003	5	..........a	-327.66
	14	3	-1.82946E-001	-2.05700E-008	0.00000E+000	-1.83100E-001	1.00679E-003	5	..........a	-327.66
	16	3.4	-2.03064E-001	-2.30619E-008	0.00000E+000	-2.03100E-001	1.03599E-003	5	..........a	-327.66
	18	3.8	-2.22976E-001	-2.55659E-008	0.00000E+000	-2.23100E-001	1.00239E-003	5	..........a	-327.66
	20	4.2	-2.43015E-001	-2.81453E-008	0.00000E+000	-2.43100E-001	9.97892E-004	5	..........a	-327.66
	22	4.6	-2.62910E-001	-3.07695E-008	0.00000E+000	-2.63100E-001	1.00749E-003	5	..........a	-327.66
	24	5	-2.83037E-001	-3.35260E-008	0.00000E+000	-2.83100E-001	1.05399E-003	5	..........a	-327.66
	26	5.4	-3.02930E-001	-3.64112E-008	0.00000E+000	-3.03100E-001	1.02839E-003	5	..........a	-327.66
	28	5.8	-3.22990E-001	-3.94088E-008	0.00000E+000	-3.23100E-001	1.05009E-003	5	..........a	-327.66
	30	6.2	-3.42907E-001	-4.25645E-008	0.00000E+000	-3.43100E-001	9.94892E-004	5	..........a	-327.66
	32	6.6	-3.62978E-001	-4.57246E-008	0.00000E+000	-3.63100E-001	1.02979E-003	5	..........a	-327.66
	34	7	-3.82919E-001	-4.90034E-008	0.00000E+000	-3.83100E-001	1.00869E-003	5	..........a	-327.66
	36	7.4	-4.02992E-001	-5.22783E-008	0.00000E+000	-4.03100E-001	1.00309E-003	5	..........a	-327.66
	38	7.8	-4.22942E-001	-5.56334E-008	0.00000E+000	-4.23100E-001	9.88292E-004	5	..........a	-327.66
[...]
	1085	217.2	3.10031E-001	-1.23668E-008	0.00000E+000	3.10000E-001	1.00389E-003	5	..........a	-327.66
	1086	217.4	3.00035E-001	-1.41021E-008	0.00000E+000	3.00000E-001	9.91292E-004	5	..........a	-327.66
	1087	217.6	2.90056E-001	-1.58856E-008	0.00000E+000	2.90000E-001	1.01069E-003	5	..........a	-327.66
	1088	217.8	2.79984E-001	-1.77554E-008	0.00000E+000	2.80000E-001	1.04689E-003	5	..........a	-327.66
	1089	218	2.70081E-001	-1.97302E-008	0.00000E+000	2.70000E-001	1.00289E-003	5	..........a	-327.66
	1090	218.2	2.60045E-001	-2.17692E-008	0.00000E+000	2.60000E-001	1.00029E-003	5	..........a	-327.66
	1091	218.4	2.50012E-001	-2.38699E-008	0.00000E+000	2.50000E-001	1.01079E-003	5	..........a	-327.66
	1092	218.6	2.40068E-001	-2.59111E-008	0.00000E+000	2.40000E-001	9.86492E-004	5	..........a	-327.66
	1093	218.8	2.30003E-001	-2.79001E-008	0.00000E+000	2.30000E-001	1.00759E-003	5	..........a	-327.66
	1094	219	2.20040E-001	-2.96766E-008	0.00000E+000	2.20000E-001	9.91992E-004	5	..........a	-327.66
	1095	219.2	2.10031E-001	-3.12759E-008	0.00000E+000	2.10000E-001	1.01339E-003	5	..........a	-327.66
	1096	219.4	2.00034E-001	-3.24650E-008	0.00000E+000	2.00000E-001	1.01039E-003	5	..........a	-327.66
	1097	219.6	1.90120E-001	-3.32688E-008	0.00000E+000	1.90000E-001	9.93692E-004	5	..........a	-327.66
	1098	219.8	1.80097E-001	-3.36973E-008	0.00000E+000	1.80000E-001	1.01209E-003	5	..........a	-327.66
	1099	220	1.70073E-001	-3.38132E-008	0.00000E+000	1.70000E-001	1.00459E-003	5	..........a	-327.66
	1100	220.2	1.60061E-001	-3.36314E-008	0.00000E+000	1.60000E-001	1.01339E-003	5	..........a	-327.66
	1101	220.4	1.50054E-001	-3.32219E-008	0.00000E+000	1.50000E-001	1.03019E-003	5	..........a	-327.66
	1102	220.6	1.40116E-001	-3.26311E-008	0.00000E+000	1.40000E-001	1.00539E-003	5	..........a	-327.66
	1103	220.8	1.30073E-001	-3.19591E-008	0.00000E+000	1.30000E-001	1.00939E-003	5	..........a	-327.66
	1104	221	1.20066E-001	-3.13113E-008	0.00000E+000	1.20000E-001	1.00899E-003	5	..........a	-327.66
	1105	221.2	1.10118E-001	-3.06735E-008	0.00000E+000	1.10000E-001	1.01829E-003	5	..........a	-327.66
	1106	221.4	1.00126E-001	-3.01499E-008	0.00000E+000	1.00000E-001	9.94592E-004	5	..........a	-327.66
	1107	221.6	9.01075E-002	-2.96135E-008	0.00000E+000	9.00000E-002	1.01199E-003	5	..........a	-327.66
	1108	221.8	8.00729E-002	-2.93296E-008	0.00000E+000	8.00000E-002	9.98592E-004	5	..........a	-327.66
	1109	222	7.00617E-002	-2.92031E-008	0.00000E+000	7.00000E-002	9.97792E-004	5	..........a	-327.66
	1110	222.2	6.01205E-002	-2.92277E-008	0.00000E+000	6.00000E-002	9.88592E-004	5	..........a	-327.66
	1111	222.4	5.00670E-002	-2.93485E-008	0.00000E+000	5.00000E-002	1.01189E-003	5	..........a	-327.66
	1112	222.6	4.00236E-002	-2.95599E-008	0.00000E+000	4.00000E-002	9.89392E-004	5	..........a	-327.66
	1113	222.8	3.00845E-002	-2.98545E-008	0.00000E+000	3.00000E-002	1.03029E-003	5	..........a	-327.66
	1114	223	2.01525E-002	-3.02605E-008	0.00000E+000	2.00000E-002	9.86492E-004	5	..........a	-327.66
	1115	223.2	1.01107E-002	-3.08525E-008	0.00000E+000	1.00000E-002	1.00639E-003	5	..........a	-327.66
	1116	223.4	3.05917E-005	-3.15226E-008	0.00000E+000	7.45058E-009	1.01629E-003	5	..........a	-327.66
	1117	223.6	-9.89051E-003	-3.18018E-008	0.00000E+000	-1.00000E-002	1.00319E-003	5	..........a	-327.66
	1118	223.8	-1.99172E-002	-3.24387E-008	0.00000E+000	-2.00000E-002	9.80592E-004	5	..........a	-327.66
	1119	224	-2.99566E-002	-3.32583E-008	0.00000E+000	-3.00000E-002	9.97792E-004	5	..........a	-327.66
	1120	224.2	-3.99224E-002	-3.36581E-008	0.00000E+000	-4.00000E-002	9.96492E-004	5	..........a	-327.66