Folder: GamryParser/data/raw/batch_data (part 8)

File: 20240321_ZZD_GM0016_HL03_E14_CV50k.DTA
EXPLAIN
TAG	CV
TITLE	LABEL	Cyclic Voltammetry	Test &Identifier
DATE	LABEL	3/21/2024	Date
TIME	LABEL	19:42:24	Time
NOTES	NOTES	1	&Notes...

PSTAT	PSTAT	REF600P-43058	Potentiostat
VINIT	POTEN	0.00000E+000	T	Initial &E (V)
VLIMIT1	POTEN	-6.00000E-001	F	Scan Limit &1 (V)
VLIMIT2	POTEN	8.00000E-001	F	Scan Limit &2 (V)
VFINAL	POTEN	0.00000E+000	T	Final &E (V)
SCANRATE	QUANT	4.99999E+004	&Scan Rate (mV/s)
STEPSIZE	QUANT	1.00000E+001	St&ep Size (mV)
CYCLES	IQUANT	10	C&ycles (#)
IMODE	SELECTOR	1	I/E Range &Mode
IRANGE	QUANT	1.00000E-005	&Max Current (mA)
AREA	QUANT	1.00000E+000	Electrode &Area (cm^2)
ELECTRODETYPE	SELECTOR	0	Electrode Type
STRIPPING	TOGGLE	F	Used for Stripping
POLARITY	TOGGLE	F	Signal Polarity
CONDIT	TWOPARAM	F	1.50000E+001	0.00000E+000	Conditionin&g	Time(s)	E(V)
DELAY	TWOPARAM	T	1.00000E+001	0.00000E+000	Init. De&lay	Time(s)	Stab.(mV/s)
EQDELAY	QUANT	1.00000E+001	Equil. &Time (s)
IRCOMP	SELECTOR	0	IRCom&p
PFCOR	QUANT	5.00000E+001	PF Corr. (ohm)
SAMPLINGMODE	SELECTOR	1	Sampling &Mode
OCVCURVE	TABLE	39
	Pt	T	Vf	Vm	Ach	Over	Temp
	#	s	V vs. Ref.	V	V	bits	deg C
	0	0.258333	4.29165E-001	4.29165E-001	2.45422E-004	..........a	-327.66
	1	0.516667	4.29171E-001	4.29484E-001	2.53622E-004	..........a	-327.66
	2	0.775	4.29204E-001	4.29584E-001	2.64156E-004	..........a	-327.66
	3	1.03333	4.29285E-001	4.29629E-001	2.48889E-004	..........a	-327.66
	4	1.29167	4.29403E-001	4.29754E-001	2.59422E-004	..........a	-327.66
	5	1.55	4.29527E-001	4.29884E-001	2.56089E-004	..........a	-327.66
	6	1.80833	4.29644E-001	4.29999E-001	2.53156E-004	..........a	-327.66
	7	2.06667	4.29758E-001	4.30179E-001	2.33156E-004	..........a	-327.66
	8	2.325	4.29880E-001	4.30343E-001	2.64956E-004	..........a	-327.66
	9	2.58333	4.30016E-001	4.30484E-001	2.69956E-004	..........a	-327.66
	10	2.84167	4.30165E-001	4.30637E-001	2.53689E-004	..........a	-327.66
	11	3.1	4.30319E-001	4.30819E-001	2.51356E-004	..........a	-327.66
	12	3.35833	4.30479E-001	4.31099E-001	2.36489E-004	..........a	-327.66
	13	3.61667	4.30650E-001	4.31203E-001	2.55889E-004	..........a	-327.66
	14	3.875	4.30831E-001	4.31222E-001	2.54156E-004	..........a	-327.66
	15	4.13333	4.31001E-001	4.31335E-001	2.35422E-004	..........a	-327.66
	16	4.39167	4.31138E-001	4.31486E-001	2.43156E-004	..........a	-327.66
	17	4.65	4.31251E-001	4.31619E-001	2.39222E-004	..........a	-327.66
	18	4.90833	4.31360E-001	4.31789E-001	2.52822E-004	..........a	-327.66
	19	5.16667	4.31483E-001	4.31957E-001	2.55822E-004	..........a	-327.66
	20	5.425	4.31624E-001	4.32118E-001	2.51689E-004	..........a	-327.66
	21	5.68333	4.31778E-001	4.32250E-001	2.23756E-004	..........a	-327.66
	22	5.94167	4.31936E-001	4.32406E-001	2.46089E-004	..........a	-327.66
	23	6.2	4.32095E-001	4.32695E-001	2.61489E-004	..........a	-327.66
	24	6.45833	4.32260E-001	4.32779E-001	2.69889E-004	..........a	-327.66
	25	6.71667	4.32432E-001	4.32814E-001	2.84156E-004	..........a	-327.66
	26	6.975	4.32594E-001	4.32960E-001	2.67156E-004	..........a	-327.66
	27	7.23333	4.32731E-001	4.33106E-001	2.32956E-004	..........a	-327.66
	28	7.49167	4.32850E-001	4.33264E-001	2.52422E-004	..........a	-327.66
	29	7.75	4.32972E-001	4.33471E-001	2.54756E-004	..........a	-327.66
	30	8.00833	4.33112E-001	4.33626E-001	2.63889E-004	..........a	-327.66
	31	8.26667	4.33269E-001	4.33777E-001	2.65422E-004	..........a	-327.66
	32	8.525	4.33436E-001	4.33905E-001	2.52156E-004	..........a	-327.66
	33	8.78333	4.33601E-001	4.34122E-001	2.40622E-004	..........a	-327.66
	34	9.04167	4.33764E-001	4.34375E-001	2.61022E-004	..........a	-327.66
	35	9.3	4.33935E-001	4.34429E-001	2.54222E-004	..........a	-327.66
	36	9.5583	4.34111E-001	4.34501E-001	2.47889E-004	..........a	-327.66
	37	9.8167	4.34273E-001	4.34650E-001	2.43422E-004	..........a	-327.66
	38	10.075	4.34408E-001	4.34772E-001	2.61689E-004	..........a	-327.66
EOC	QUANT	0.4344082	Open Circuit (V)
PSTATMODEL	IQUANT	7	Pstat Model
PSTATSECTION	LABEL	REF600P-43058	Pstat Section
PSTATSERIALNO	LABEL	43058	Pstat Serial Number
CTRLMODE	IQUANT	1	Control Mode
ELECTROMETER	IQUANT	0	RE=0 or CS=1
IESTAB	IQUANT	2	I/E Stability
CASPEED	IQUANT	4	Control Amp Speed
CONVENTION	IQUANT	1	Current Convention
ICHRANGE	IQUANT	2	Ich Range
ICHRANGEMODE	TOGGLE	F	Ich Auto Range
ICHOFFSETENABLE	TOGGLE	F	Ich Offset Enable
ICHOFFSET	QUANT	0	Ich Offset (V)
ICHFILTER	IQUANT	1	Ich Filter
VCHRANGE	IQUANT	2	Vch Range
VCHRANGEMODE	TOGGLE	F	Vch Auto Range
VCHOFFSETENABLE	TOGGLE	F	Vch Offset Enable
VCHOFFSET	QUANT	0	Vch Offset (V)
VCHFILTER	IQUANT	1	Vch Filter
ACHRANGE	IQUANT	2	Ach Range
ACHOFFSETENABLE	TOGGLE	F	Ach Offset Enable
ACHOFFSET	QUANT	0	Ach Offset (V)
ACHFILTER	IQUANT	1	Ach Filter
IERANGELOWERLIMIT	IQUANT	1	I/E Range Lower Limit
IERANGEMODE	TOGGLE	F	I/E AutoRange
IERANGE	IQUANT	4	I/E Range
POSFEEDENABLE	TOGGLE	F	Positive Feedback IR Comp
POSFEEDRESISTANCE	QUANT	0	Positive Feedback Resistance (ohm)
ACHSELECT	IQUANT	4	Ach Select
SENSECABLEID	IQUANT	7	Sense Cable ID
PWRCABLEID	IQUANT	7	Power Cable ID
DCCALDATE	LABEL	12/18/2023	DC Calibration Date
ACCALDATE	LABEL	12/18/2023	AC Calibration Date
THERMOSELECT	IQUANT	1	Thermo Select
FRAMEWORKVERSION	LABEL	7.8.4	Framework Version
INSTRUMENTVERSION	LABEL	4.42	Instrument Version
CURVE1	TABLE
	Pt	T	Vf	Im	Vu	Sig	Ach	IERange	Over	Temp
	#	s	V vs. Ref.	A	V	V	V	#	bits	deg C
	0	0.0002	4.34370E-001	2.17885E-011	0.00000E+000	4.34400E-001	8.00223E-005	4	..........a	-327.66
	3	0.0008	4.04270E-001	-1.14217E-010	0.00000E+000	4.04400E-001	8.00223E-005	4	..........a	-327.66
	6	0.0014	3.74170E-001	-2.72223E-010	0.00000E+000	3.74400E-001	-3.19978E-004	4	..........a	-327.66
	9	0.002	3.44370E-001	-4.50230E-010	0.00000E+000	3.44400E-001	8.00223E-005	4	..........a	-327.66
	12	0.0026	3.14370E-001	-6.54237E-010	0.00000E+000	3.14400E-001	-4.19978E-004	4	..........a	-327.66
	15	0.0032	2.84370E-001	-8.71246E-010	0.00000E+000	2.84400E-001	8.00223E-005	4	..........a	-327.66
	18	0.0038	2.54270E-001	-1.12226E-009	0.00000E+000	2.54400E-001	8.00223E-005	4	..........a	-327.66
	21	0.0044	2.24470E-001	-1.40227E-009	0.00000E+000	2.24400E-001	-1.19978E-004	4	..........a	-327.66
	24	0.005	1.94370E-001	-1.70628E-009	0.00000E+000	1.94400E-001	8.00223E-005	4	..........a	-327.66
	27	0.0056	1.64370E-001	-2.05529E-009	0.00000E+000	1.64400E-001	8.00223E-005	4	..........a	-327.66
	30	0.0062	1.34570E-001	-2.43131E-009	0.00000E+000	1.34400E-001	8.00223E-005	4	..........a	-327.66
	33	0.0068	1.04370E-001	-2.86232E-009	0.00000E+000	1.04400E-001	8.00223E-005	4	..........a	-327.66
	36	0.0074	7.45695E-002	-3.33134E-009	0.00000E+000	7.44000E-002	8.00223E-005	4	..........a	-327.66
	39	0.008	4.43695E-002	-3.85036E-009	0.00000E+000	4.44000E-002	-2.19978E-004	4	..........a	-327.66
	42	0.0086	1.45695E-002	-4.42038E-009	0.00000E+000	1.44000E-002	8.00223E-005	4	..........a	-327.66
	45	0.0092	-1.55305E-002	-5.02241E-009	0.00000E+000	-1.56000E-002	8.00223E-005	4	..........a	-327.66
	48	0.0098	-4.54305E-002	-5.66243E-009	0.00000E+000	-4.56000E-002	8.00223E-005	4	..........a	-327.66
	51	0.0104	-7.55305E-002	-6.34446E-009	0.00000E+000	-7.56000E-002	8.00223E-005	4	..........a	-327.66
	54	0.011	-1.05530E-001	-7.04948E-009	0.00000E+000	-1.05600E-001	-3.19978E-004	4	..........a	-327.66
	57	0.0116	-1.35430E-001	-7.77251E-009	0.00000E+000	-1.35600E-001	8.00223E-005	4	..........a	-327.66
[...]
	2765	0.5532	7.79869E-001	1.11212E-008	0.00000E+000	7.80000E-001	8.00223E-005	4	..........a	-327.66
	2766	0.5534	7.69969E-001	1.12142E-008	0.00000E+000	7.70000E-001	8.00223E-005	4	..........a	-327.66
	2767	0.5536	7.59869E-001	1.12862E-008	0.00000E+000	7.60000E-001	8.00223E-005	4	..........a	-327.66
	2768	0.5538	7.49869E-001	1.13322E-008	0.00000E+000	7.50000E-001	-4.19978E-004	4	..........a	-327.66
	2769	0.554	7.39869E-001	1.13672E-008	0.00000E+000	7.40000E-001	8.00223E-005	4	..........a	-327.66
	2770	0.5542	7.29869E-001	1.13842E-008	0.00000E+000	7.30000E-001	8.00223E-005	4	..........a	-327.66
	2771	0.5544	7.19969E-001	1.13872E-008	0.00000E+000	7.20000E-001	-1.19978E-004	4	..........a	-327.66
	2772	0.5546	7.09870E-001	1.13782E-008	0.00000E+000	7.10000E-001	8.00223E-005	4	..........a	-327.66
	2773	0.5548	6.99769E-001	1.13582E-008	0.00000E+000	7.00000E-001	8.00223E-005	4	..........a	-327.66
	2774	0.555	6.89869E-001	1.13362E-008	0.00000E+000	6.90000E-001	-3.19978E-004	4	..........a	-327.66
	2775	0.5552	6.80070E-001	1.13062E-008	0.00000E+000	6.80000E-001	8.00223E-005	4	..........a	-327.66
	2776	0.5554	6.69869E-001	1.12722E-008	0.00000E+000	6.70000E-001	8.00223E-005	4	..........a	-327.66
	2777	0.5556	6.59769E-001	1.12262E-008	0.00000E+000	6.60000E-001	8.00223E-005	4	..........a	-327.66
	2778	0.5558	6.49769E-001	1.11772E-008	0.00000E+000	6.50000E-001	8.00223E-005	4	..........a	-327.66
	2779	0.556	6.39769E-001	1.11222E-008	0.00000E+000	6.40000E-001	8.00223E-005	4	..........a	-327.66
	2780	0.5562	6.29869E-001	1.10672E-008	0.00000E+000	6.30000E-001	-3.19978E-004	4	..........a	-327.66
	2781	0.5564	6.19969E-001	1.10022E-008	0.00000E+000	6.20000E-001	8.00223E-005	4	..........a	-327.66
	2782	0.5566	6.09969E-001	1.09382E-008	0.00000E+000	6.10000E-001	8.00223E-005	4	..........a	-327.66
	2783	0.5568	5.99769E-001	1.08632E-008	0.00000E+000	6.00000E-001	8.00223E-005	4	..........a	-327.66
	2784	0.557	5.89769E-001	1.07932E-008	0.00000E+000	5.90000E-001	8.00223E-005	4	..........a	-327.66
	2785	0.5572	5.79669E-001	1.07182E-008	0.00000E+000	5.80000E-001	8.00223E-005	4	..........a	-327.66
	2786	0.5574	5.69869E-001	1.06322E-008	0.00000E+000	5.70000E-001	8.00223E-005	4	..........a	-327.66
	2787	0.5576	5.59569E-001	1.05502E-008	0.00000E+000	5.60000E-001	8.00223E-005	4	..........a	-327.66
	2788	0.5578	5.50070E-001	1.04582E-008	0.00000E+000	5.50000E-001	8.00223E-005	4	..........a	-327.66
	2789	0.558	5.39869E-001	1.03732E-008	0.00000E+000	5.40000E-001	8.00223E-005	4	..........a	-327.66
	2790	0.5582	5.30069E-001	1.02812E-008	0.00000E+000	5.30000E-001	8.00223E-005	4	..........a	-327.66
	2791	0.5584	5.20069E-001	1.01852E-008	0.00000E+000	5.20000E-001	8.00223E-005	4	..........a	-327.66
	2792	0.5586	5.09969E-001	1.00852E-008	0.00000E+000	5.10000E-001	8.00223E-005	4	..........a	-327.66
	2793	0.5588	5.00069E-001	9.98017E-009	0.00000E+000	5.00000E-001	8.00223E-005	4	..........a	-327.66
	2794	0.559	4.90070E-001	9.87717E-009	0.00000E+000	4.90000E-001	8.00223E-005	4	..........a	-327.66
	2795	0.5592	4.79870E-001	9.77016E-009	0.00000E+000	4.80000E-001	8.00223E-005	4	..........a	-327.66
	2796	0.5594	4.69970E-001	9.65816E-009	0.00000E+000	4.70000E-001	8.00223E-005	4	..........a	-327.66
	2797	0.5596	4.60170E-001	9.54415E-009	0.00000E+000	4.60000E-001	8.00223E-005	4	..........a	-327.66
	2798	0.5598	4.49670E-001	9.42415E-009	0.00000E+000	4.50000E-001	8.00223E-005	4	..........a	-327.66
	2799	0.56	4.40170E-001	9.30615E-009	0.00000E+000	4.40000E-001	8.00223E-005	4	..........a	-327.66
	2800	0.5602	4.29870E-001	9.18714E-009	0.00000E+000	4.30000E-001	8.00223E-005	4	..........a	-327.66

File: 20240321_ZZK_GM0016_HL03_E16_CV50.DTA
EXPLAIN
TAG	CV
TITLE	LABEL	Cyclic Voltammetry	Test &Identifier
DATE	LABEL	3/21/2024	Date
TIME	LABEL	20:02:12	Time
NOTES	NOTES	1	&Notes...

PSTAT	PSTAT	REF600P-43058	Potentiostat
VINIT	POTEN	0.00000E+000	T	Initial &E (V)
VLIMIT1	POTEN	-6.00000E-001	F	Scan Limit &1 (V)
VLIMIT2	POTEN	8.00000E-001	F	Scan Limit &2 (V)
VFINAL	POTEN	0.00000E+000	T	Final &E (V)
SCANRATE	QUANT	4.99999E+001	&Scan Rate (mV/s)
STEPSIZE	QUANT	1.00000E+001	St&ep Size (mV)
CYCLES	IQUANT	4	C&ycles (#)
IMODE	SELECTOR	1	I/E Range &Mode
IRANGE	QUANT	1.00000E-005	&Max Current (mA)
AREA	QUANT	1.00000E+000	Electrode &Area (cm^2)
ELECTRODETYPE	SELECTOR	0	Electrode Type
STRIPPING	TOGGLE	F	Used for Stripping
POLARITY	TOGGLE	F	Signal Polarity
CONDIT	TWOPARAM	F	1.50000E+001	0.00000E+000	Conditionin&g	Time(s)	E(V)
DELAY	TWOPARAM	T	1.00000E+001	0.00000E+000	Init. De&lay	Time(s)	Stab.(mV/s)
EQDELAY	QUANT	1.00000E+001	Equil. &Time (s)
IRCOMP	SELECTOR	0	IRCom&p
PFCOR	QUANT	5.00000E+001	PF Corr. (ohm)
SAMPLINGMODE	SELECTOR	1	Sampling &Mode
OCVCURVE	TABLE	39
	Pt	T	Vf	Vm	Ach	Over	Temp
	#	s	V vs. Ref.	V	V	bits	deg C
	0	0.258333	1.39084E-001	1.39084E-001	2.45822E-004	..........a	-327.66
	1	0.516667	1.39096E-001	1.39730E-001	2.52956E-004	..........a	-327.66
	2	0.775	1.39173E-001	1.40380E-001	2.50756E-004	..........a	-327.66
	3	1.03333	1.39392E-001	1.41039E-001	2.48089E-004	..........a	-327.66
	4	1.29167	1.39793E-001	1.41697E-001	2.47089E-004	..........a	-327.66
	5	1.55	1.40341E-001	1.42345E-001	2.42622E-004	..........a	-327.66
	6	1.80833	1.40970E-001	1.42993E-001	2.45889E-004	..........a	-327.66
	7	2.06667	1.41627E-001	1.43637E-001	2.38289E-004	..........a	-327.66
	8	2.325	1.42286E-001	1.44281E-001	2.43622E-004	..........a	-327.66
	9	2.58333	1.42939E-001	1.44928E-001	2.50822E-004	..........a	-327.66
	10	2.84167	1.43587E-001	1.45562E-001	2.58022E-004	..........a	-327.66
	11	3.1	1.44231E-001	1.46193E-001	2.56156E-004	..........a	-327.66
	12	3.35833	1.44872E-001	1.46829E-001	2.30689E-004	..........a	-327.66
	13	3.61667	1.45510E-001	1.47455E-001	2.48422E-004	..........a	-327.66
	14	3.875	1.46144E-001	1.48083E-001	2.34222E-004	..........a	-327.66
	15	4.13333	1.46776E-001	1.48703E-001	2.41822E-004	..........a	-327.66
	16	4.39167	1.47405E-001	1.49322E-001	2.50556E-004	..........a	-327.66
	17	4.65	1.48030E-001	1.49926E-001	2.49356E-004	..........a	-327.66
	18	4.90833	1.48652E-001	1.50546E-001	2.42622E-004	..........a	-327.66
	19	5.16667	1.49269E-001	1.51152E-001	2.51022E-004	..........a	-327.66
	20	5.425	1.49882E-001	1.51754E-001	2.35156E-004	..........a	-327.66
	21	5.68333	1.50494E-001	1.52358E-001	2.37356E-004	..........a	-327.66
	22	5.94167	1.51101E-001	1.52955E-001	2.52422E-004	..........a	-327.66
	23	6.2	1.51706E-001	1.53546E-001	2.45089E-004	..........a	-327.66
	24	6.45833	1.52308E-001	1.54143E-001	2.47156E-004	..........a	-327.66
	25	6.71667	1.52906E-001	1.54729E-001	2.38956E-004	..........a	-327.66
	26	6.975	1.53500E-001	1.55312E-001	2.39489E-004	..........a	-327.66
	27	7.23333	1.54092E-001	1.55895E-001	2.42889E-004	..........a	-327.66
	28	7.49167	1.54681E-001	1.56475E-001	2.44022E-004	..........a	-327.66
	29	7.75	1.55266E-001	1.57048E-001	2.44289E-004	..........a	-327.66
	30	8.00833	1.55847E-001	1.57617E-001	2.45422E-004	..........a	-327.66
	31	8.26667	1.56426E-001	1.58188E-001	2.38489E-004	..........a	-327.66
	32	8.525	1.57001E-001	1.58766E-001	2.49489E-004	..........a	-327.66
	33	8.78333	1.57574E-001	1.59324E-001	2.44289E-004	..........a	-327.66
	34	9.04167	1.58145E-001	1.59880E-001	2.42956E-004	..........a	-327.66
	35	9.3	1.58713E-001	1.60433E-001	2.54289E-004	..........a	-327.66
	36	9.5583	1.59276E-001	1.60989E-001	2.49089E-004	..........a	-327.66
	37	9.8167	1.59835E-001	1.61538E-001	2.47022E-004	..........a	-327.66
	38	10.075	1.60390E-001	1.62094E-001	2.44756E-004	..........a	-327.66
EOC	QUANT	0.1603904	Open Circuit (V)
PSTATMODEL	IQUANT	7	Pstat Model
PSTATSECTION	LABEL	REF600P-43058	Pstat Section
PSTATSERIALNO	LABEL	43058	Pstat Serial Number
CTRLMODE	IQUANT	1	Control Mode
ELECTROMETER	IQUANT	0	RE=0 or CS=1
IESTAB	IQUANT	2	I/E Stability
CASPEED	IQUANT	4	Control Amp Speed
CONVENTION	IQUANT	1	Current Convention
ICHRANGE	IQUANT	2	Ich Range
ICHRANGEMODE	TOGGLE	F	Ich Auto Range
ICHOFFSETENABLE	TOGGLE	F	Ich Offset Enable
ICHOFFSET	QUANT	0	Ich Offset (V)
ICHFILTER	IQUANT	2	Ich Filter
VCHRANGE	IQUANT	2	Vch Range
VCHRANGEMODE	TOGGLE	F	Vch Auto Range
VCHOFFSETENABLE	TOGGLE	F	Vch Offset Enable
VCHOFFSET	QUANT	0	Vch Offset (V)
VCHFILTER	IQUANT	2	Vch Filter
ACHRANGE	IQUANT	2	Ach Range
ACHOFFSETENABLE	TOGGLE	F	Ach Offset Enable
ACHOFFSET	QUANT	0	Ach Offset (V)
ACHFILTER	IQUANT	1	Ach Filter
IERANGELOWERLIMIT	IQUANT	1	I/E Range Lower Limit
IERANGEMODE	TOGGLE	F	I/E AutoRange
IERANGE	IQUANT	4	I/E Range
POSFEEDENABLE	TOGGLE	F	Positive Feedback IR Comp
POSFEEDRESISTANCE	QUANT	0	Positive Feedback Resistance (ohm)
ACHSELECT	IQUANT	4	Ach Select
SENSECABLEID	IQUANT	7	Sense Cable ID
PWRCABLEID	IQUANT	7	Power Cable ID
DCCALDATE	LABEL	12/18/2023	DC Calibration Date
ACCALDATE	LABEL	12/18/2023	AC Calibration Date
THERMOSELECT	IQUANT	1	Thermo Select
FRAMEWORKVERSION	LABEL	7.8.4	Framework Version
INSTRUMENTVERSION	LABEL	4.42	Instrument Version
CURVE1	TABLE
	Pt	T	Vf	Im	Vu	Sig	Ach	IERange	Over	Temp
	#	s	V vs. Ref.	A	V	V	V	#	bits	deg C
	0	0.2	1.60483E-001	3.85303E-011	0.00000E+000	1.60400E-001	9.88822E-004	4	..........a	-327.66
	3	0.8	1.30458E-001	-1.15346E-011	0.00000E+000	1.30400E-001	1.00772E-003	4	..........a	-327.66
	6	1.4	1.00390E-001	-2.72062E-011	0.00000E+000	1.00400E-001	1.00982E-003	4	..........a	-327.66
	9	2	7.04280E-002	-3.74896E-011	0.00000E+000	7.04000E-002	1.01912E-003	4	..........a	-327.66
	12	2.6	4.04179E-002	-4.41899E-011	0.00000E+000	4.04000E-002	9.75322E-004	4	..........a	-327.66
	15	3.2	1.04818E-002	-5.07661E-011	0.00000E+000	1.04000E-002	9.89322E-004	4	..........a	-327.66
	18	3.8	-1.95751E-002	-5.69684E-011	0.00000E+000	-1.96000E-002	9.97422E-004	4	..........a	-327.66
	21	4.4	-4.96179E-002	-6.57347E-011	0.00000E+000	-4.96000E-002	9.93722E-004	4	..........a	-327.66
	24	5	-7.95601E-002	-7.34160E-011	0.00000E+000	-7.96000E-002	9.98422E-004	4	..........a	-327.66
	27	5.6	-1.09570E-001	-8.56165E-011	0.00000E+000	-1.09600E-001	1.02612E-003	4	..........a	-327.66
	30	6.2	-1.39578E-001	-9.98070E-011	0.00000E+000	-1.39600E-001	9.74922E-004	4	..........a	-327.66
	33	6.8	-1.69555E-001	-1.15464E-010	0.00000E+000	-1.69600E-001	9.95622E-004	4	..........a	-327.66
	36	7.4	-1.99585E-001	-1.32263E-010	0.00000E+000	-1.99600E-001	1.00342E-003	4	..........a	-327.66
	39	8	-2.29522E-001	-1.55028E-010	0.00000E+000	-2.29600E-001	9.86622E-004	4	..........a	-327.66
	42	8.6	-2.59598E-001	-1.81662E-010	0.00000E+000	-2.59600E-001	9.96722E-004	4	..........a	-327.66
	45	9.2	-2.89589E-001	-2.15663E-010	0.00000E+000	-2.89600E-001	1.02002E-003	4	..........a	-327.66
	48	9.8	-3.19529E-001	-2.58442E-010	0.00000E+000	-3.19600E-001	1.00222E-003	4	..........a	-327.66
	51	10.4	-3.49514E-001	-3.10618E-010	0.00000E+000	-3.49600E-001	9.85722E-004	4	..........a	-327.66
	54	11	-3.79505E-001	-3.79400E-010	0.00000E+000	-3.79600E-001	1.01312E-003	4	..........a	-327.66
	57	11.6	-4.09480E-001	-4.63220E-010	0.00000E+000	-4.09600E-001	9.86222E-004	4	..........a	-327.66
	60	12.2	-4.39465E-001	-5.61309E-010	0.00000E+000	-4.39600E-001	9.89522E-004	4	..........a	-327.66
[...]
	1085	217.2	5.09922E-001	-8.16963E-011	0.00000E+000	5.10000E-001	9.97622E-004	4	..........a	-327.66
	1086	217.4	5.00054E-001	-8.51805E-011	0.00000E+000	5.00000E-001	1.01362E-003	4	..........a	-327.66
	1087	217.6	4.89967E-001	-8.92106E-011	0.00000E+000	4.90000E-001	9.93322E-004	4	..........a	-327.66
	1088	217.8	4.79963E-001	-9.37008E-011	0.00000E+000	4.80000E-001	1.01622E-003	4	..........a	-327.66
	1089	218	4.69962E-001	-9.70159E-011	0.00000E+000	4.70000E-001	1.00532E-003	4	..........a	-327.66
	1090	218.2	4.60014E-001	-1.00644E-010	0.00000E+000	4.60000E-001	1.01362E-003	4	..........a	-327.66
	1091	218.4	4.49969E-001	-1.04221E-010	0.00000E+000	4.50000E-001	9.99322E-004	4	..........a	-327.66
	1092	218.6	4.39986E-001	-1.07057E-010	0.00000E+000	4.40000E-001	1.01402E-003	4	..........a	-327.66
	1093	218.8	4.29948E-001	-1.09942E-010	0.00000E+000	4.30000E-001	1.01792E-003	4	..........a	-327.66
	1094	219	4.20024E-001	-1.12303E-010	0.00000E+000	4.20000E-001	1.02022E-003	4	..........a	-327.66
	1095	219.2	4.09954E-001	-1.16045E-010	0.00000E+000	4.10000E-001	1.00842E-003	4	..........a	-327.66
	1096	219.4	4.00064E-001	-1.17801E-010	0.00000E+000	4.00000E-001	9.92122E-004	4	..........a	-327.66
	1097	219.6	3.89980E-001	-1.20882E-010	0.00000E+000	3.90000E-001	1.02032E-003	4	..........a	-327.66
	1098	219.8	3.80016E-001	-1.23251E-010	0.00000E+000	3.80000E-001	1.02202E-003	4	..........a	-327.66
	1099	220	3.70008E-001	-1.25274E-010	0.00000E+000	3.70000E-001	9.90322E-004	4	..........a	-327.66
	1100	220.2	3.59944E-001	-1.28564E-010	0.00000E+000	3.60000E-001	9.94422E-004	4	..........a	-327.66
	1101	220.4	3.49955E-001	-1.30633E-010	0.00000E+000	3.50000E-001	9.98722E-004	4	..........a	-327.66
	1102	220.6	3.40043E-001	-1.33587E-010	0.00000E+000	3.40000E-001	9.95222E-004	4	..........a	-327.66
	1103	220.8	3.29998E-001	-1.36166E-010	0.00000E+000	3.30000E-001	1.00792E-003	4	..........a	-327.66
	1104	221	3.19909E-001	-1.38503E-010	0.00000E+000	3.20000E-001	1.01912E-003	4	..........a	-327.66
	1105	221.2	3.09975E-001	-1.40442E-010	0.00000E+000	3.10000E-001	1.01492E-003	4	..........a	-327.66
	1106	221.4	2.99998E-001	-1.42732E-010	0.00000E+000	3.00000E-001	9.97422E-004	4	..........a	-327.66
	1107	221.6	2.89995E-001	-1.45193E-010	0.00000E+000	2.90000E-001	9.93422E-004	4	..........a	-327.66
	1108	221.8	2.79981E-001	-1.47542E-010	0.00000E+000	2.80000E-001	1.02432E-003	4	..........a	-327.66
	1109	222	2.69973E-001	-1.49703E-010	0.00000E+000	2.70000E-001	1.01192E-003	4	..........a	-327.66
	1110	222.2	2.60014E-001	-1.51555E-010	0.00000E+000	2.60000E-001	1.03682E-003	4	..........a	-327.66
	1111	222.4	2.50063E-001	-1.53367E-010	0.00000E+000	2.50000E-001	9.97722E-004	4	..........a	-327.66
	1112	222.6	2.40019E-001	-1.54897E-010	0.00000E+000	2.40000E-001	1.02282E-003	4	..........a	-327.66
	1113	222.8	2.29976E-001	-1.56278E-010	0.00000E+000	2.30000E-001	1.02692E-003	4	..........a	-327.66
	1114	223	2.20018E-001	-1.57949E-010	0.00000E+000	2.20000E-001	1.01652E-003	4	..........a	-327.66
	1115	223.2	2.10003E-001	-1.58749E-010	0.00000E+000	2.10000E-001	9.97922E-004	4	..........a	-327.66
	1116	223.4	2.00044E-001	-1.59406E-010	0.00000E+000	2.00000E-001	1.00642E-003	4	..........a	-327.66
	1117	223.6	1.90043E-001	-1.60307E-010	0.00000E+000	1.90000E-001	1.01712E-003	4	..........a	-327.66
	1118	223.8	1.80051E-001	-1.61205E-010	0.00000E+000	1.80000E-001	1.02422E-003	4	..........a	-327.66
	1119	224	1.70082E-001	-1.61640E-010	0.00000E+000	1.70000E-001	1.01492E-003	4	..........a	-327.66
	1120	224.2	1.60038E-001	-1.62416E-010	0.00000E+000	1.60000E-001	1.01232E-003	4	..........a	-327.66