Folder: GamryParser/data/raw/batch_data (part 9)

File: 20240424_C2_GM0016_HL03_E01_CV50.DTA
EXPLAIN
TAG	CV
TITLE	LABEL	Cyclic Voltammetry	Test &Identifier
DATE	LABEL	4/24/2024	Date
TIME	LABEL	16:47:50	Time
NOTES	NOTES	1	&Notes...

PSTAT	PSTAT	REF600P-43058	Potentiostat
VINIT	POTEN	0.00000E+000	T	Initial &E (V)
VLIMIT1	POTEN	-6.00000E-001	F	Scan Limit &1 (V)
VLIMIT2	POTEN	8.00000E-001	F	Scan Limit &2 (V)
VFINAL	POTEN	0.00000E+000	T	Final &E (V)
SCANRATE	QUANT	4.99999E+001	&Scan Rate (mV/s)
STEPSIZE	QUANT	1.00000E+001	St&ep Size (mV)
CYCLES	IQUANT	4	C&ycles (#)
IMODE	SELECTOR	0	I/E Range &Mode
IRANGE	QUANT	1.00000E-005	&Max Current (mA)
AREA	QUANT	1.00000E+000	Electrode &Area (cm^2)
ELECTRODETYPE	SELECTOR	0	Electrode Type
STRIPPING	TOGGLE	F	Used for Stripping
POLARITY	TOGGLE	F	Signal Polarity
CONDIT	TWOPARAM	F	1.50000E+001	0.00000E+000	Conditionin&g	Time(s)	E(V)
DELAY	TWOPARAM	T	1.00000E+001	0.00000E+000	Init. De&lay	Time(s)	Stab.(mV/s)
EQDELAY	QUANT	1.00000E+001	Equil. &Time (s)
IRCOMP	SELECTOR	0	IRCom&p
PFCOR	QUANT	5.00000E+001	PF Corr. (ohm)
SAMPLINGMODE	SELECTOR	1	Sampling &Mode
OCVCURVE	TABLE	39
	Pt	T	Vf	Vm	Ach	Over	Temp
	#	s	V vs. Ref.	V	V	bits	deg C
	0	0.258333	2.29930E-001	2.29930E-001	2.08126E-004	..........a	-327.66
	1	0.516667	2.29855E-001	2.26036E-001	2.02392E-004	..........a	-327.66
	2	0.775	2.29397E-001	2.22240E-001	2.05992E-004	..........a	-327.66
	3	1.03333	2.28091E-001	2.18526E-001	2.01192E-004	..........a	-327.66
	4	1.29167	2.25734E-001	2.14872E-001	2.02992E-004	..........a	-327.66
	5	1.55	2.22558E-001	2.11265E-001	2.08792E-004	..........a	-327.66
	6	1.80833	2.18972E-001	2.07696E-001	2.11392E-004	..........a	-327.66
	7	2.06667	2.15276E-001	2.04153E-001	2.03326E-004	..........a	-327.66
	8	2.325	2.11609E-001	2.00622E-001	2.01592E-004	..........a	-327.66
	9	2.58333	2.08000E-001	1.97105E-001	2.00459E-004	..........a	-327.66
	10	2.84167	2.04437E-001	1.93591E-001	2.12126E-004	..........a	-327.66
	11	3.1	2.00901E-001	1.90074E-001	1.99659E-004	..........a	-327.66
	12	3.35833	1.97378E-001	1.86556E-001	2.06126E-004	..........a	-327.66
	13	3.61667	1.93861E-001	1.83039E-001	2.07059E-004	..........a	-327.66
	14	3.875	1.90345E-001	1.79508E-001	2.06192E-004	..........a	-327.66
	15	4.13333	1.86827E-001	1.75973E-001	2.11259E-004	..........a	-327.66
	16	4.39167	1.83305E-001	1.72426E-001	2.12126E-004	..........a	-327.66
	17	4.65	1.79776E-001	1.68871E-001	2.13792E-004	..........a	-327.66
	18	4.90833	1.76240E-001	1.65305E-001	2.05926E-004	..........a	-327.66
	19	5.16667	1.72695E-001	1.61742E-001	2.08392E-004	..........a	-327.66
	20	5.425	1.69141E-001	1.58171E-001	2.07726E-004	..........a	-327.66
	21	5.68333	1.65581E-001	1.54590E-001	2.06259E-004	..........a	-327.66
	22	5.94167	1.62015E-001	1.51010E-001	2.11792E-004	..........a	-327.66
	23	6.2	1.58443E-001	1.47431E-001	2.09059E-004	..........a	-327.66
	24	6.45833	1.54867E-001	1.43861E-001	2.08326E-004	..........a	-327.66
	25	6.71667	1.51290E-001	1.40295E-001	2.05326E-004	..........a	-327.66
	26	6.975	1.47715E-001	1.36741E-001	2.03726E-004	..........a	-327.66
	27	7.23333	1.44144E-001	1.33204E-001	1.98926E-004	..........a	-327.66
	28	7.49167	1.40581E-001	1.29681E-001	2.04592E-004	..........a	-327.66
	29	7.75	1.37030E-001	1.26190E-001	2.03792E-004	..........a	-327.66
	30	8.00833	1.33493E-001	1.22726E-001	2.06192E-004	..........a	-327.66
	31	8.26667	1.29976E-001	1.19291E-001	2.07659E-004	..........a	-327.66
	32	8.525	1.26484E-001	1.15893E-001	2.00926E-004	..........a	-327.66
	33	8.78333	1.23019E-001	1.12528E-001	2.10792E-004	..........a	-327.66
	34	9.04167	1.19585E-001	1.09206E-001	2.05659E-004	..........a	-327.66
	35	9.3	1.16184E-001	1.05924E-001	2.07459E-004	..........a	-327.66
	36	9.5583	1.12820E-001	1.02688E-001	2.03392E-004	..........a	-327.66
	37	9.8167	1.09496E-001	9.94983E-002	2.16192E-004	..........a	-327.66
	38	10.075	1.06213E-001	9.63532E-002	2.09592E-004	..........a	-327.66
EOC	QUANT	0.1062132	Open Circuit (V)
PSTATMODEL	IQUANT	7	Pstat Model
PSTATSECTION	LABEL	REF600P-43058	Pstat Section
PSTATSERIALNO	LABEL	43058	Pstat Serial Number
CTRLMODE	IQUANT	1	Control Mode
ELECTROMETER	IQUANT	0	RE=0 or CS=1
IESTAB	IQUANT	2	I/E Stability
CASPEED	IQUANT	4	Control Amp Speed
CONVENTION	IQUANT	1	Current Convention
ICHRANGE	IQUANT	2	Ich Range
ICHRANGEMODE	TOGGLE	F	Ich Auto Range
ICHOFFSETENABLE	TOGGLE	F	Ich Offset Enable
ICHOFFSET	QUANT	0	Ich Offset (V)
ICHFILTER	IQUANT	2	Ich Filter
VCHRANGE	IQUANT	2	Vch Range
VCHRANGEMODE	TOGGLE	F	Vch Auto Range
VCHOFFSETENABLE	TOGGLE	F	Vch Offset Enable
VCHOFFSET	QUANT	0	Vch Offset (V)
VCHFILTER	IQUANT	2	Vch Filter
ACHRANGE	IQUANT	2	Ach Range
ACHOFFSETENABLE	TOGGLE	F	Ach Offset Enable
ACHOFFSET	QUANT	0	Ach Offset (V)
ACHFILTER	IQUANT	1	Ach Filter
IERANGELOWERLIMIT	IQUANT	1	I/E Range Lower Limit
IERANGEMODE	TOGGLE	T	I/E AutoRange
IERANGE	IQUANT	4	I/E Range
POSFEEDENABLE	TOGGLE	F	Positive Feedback IR Comp
POSFEEDRESISTANCE	QUANT	0	Positive Feedback Resistance (ohm)
ACHSELECT	IQUANT	4	Ach Select
SENSECABLEID	IQUANT	7	Sense Cable ID
PWRCABLEID	IQUANT	7	Power Cable ID
DCCALDATE	LABEL	3/22/2024	DC Calibration Date
ACCALDATE	LABEL	3/22/2024	AC Calibration Date
THERMOSELECT	IQUANT	1	Thermo Select
FRAMEWORKVERSION	LABEL	7.8.4	Framework Version
INSTRUMENTVERSION	LABEL	4.42	Instrument Version
CURVE1	TABLE
	Pt	T	Vf	Im	Vu	Sig	Ach	IERange	Over	Temp
	#	s	V vs. Ref.	A	V	V	V	#	bits	deg C
	0	0.2	1.06239E-001	1.31811E-008	0.00000E+000	1.06200E-001	9.49692E-004	5	..........a	-327.66
	3	0.8	7.63340E-002	4.62538E-009	0.00000E+000	7.62000E-002	9.55792E-004	5	..........a	-327.66
	6	1.4	4.62697E-002	-9.72680E-010	0.00000E+000	4.62000E-002	9.61292E-004	5	..........a	-327.66
	9	2	1.63269E-002	-5.99099E-009	0.00000E+000	1.62000E-002	9.38892E-004	5	..........a	-327.66
	12	2.6	-1.37826E-002	-1.07150E-008	0.00000E+000	-1.38000E-002	9.33392E-004	5	..........a	-327.66
	15	3.2	-4.37366E-002	-1.51526E-008	0.00000E+000	-4.38000E-002	9.43492E-004	5	..........a	-327.66
	18	3.8	-7.37571E-002	-1.94353E-008	0.00000E+000	-7.38000E-002	9.47192E-004	5	..........a	-327.66
	21	4.4	-1.03714E-001	-2.35356E-008	0.00000E+000	-1.03800E-001	9.48192E-004	5	..........a	-327.66
	24	5	-1.33774E-001	-2.72597E-008	0.00000E+000	-1.33800E-001	9.60692E-004	5	..........a	-327.66
	27	5.6	-1.63672E-001	-3.06923E-008	0.00000E+000	-1.63800E-001	9.49692E-004	5	..........a	-327.66
	30	6.2	-1.93773E-001	-3.39854E-008	0.00000E+000	-1.93800E-001	9.52592E-004	5	..........a	-327.66
	33	6.8	-2.23705E-001	-3.71460E-008	0.00000E+000	-2.23800E-001	9.49892E-004	5	..........a	-327.66
	36	7.4	-2.53732E-001	-4.02213E-008	0.00000E+000	-2.53800E-001	9.40292E-004	5	..........a	-327.66
	39	8	-2.83647E-001	-4.32831E-008	0.00000E+000	-2.83800E-001	9.45592E-004	5	..........a	-327.66
	42	8.6	-3.13735E-001	-4.62785E-008	0.00000E+000	-3.13800E-001	9.45792E-004	5	..........a	-327.66
	45	9.2	-3.43773E-001	-4.92358E-008	0.00000E+000	-3.43800E-001	9.39192E-004	5	..........a	-327.66
	48	9.8	-3.73716E-001	-5.22215E-008	0.00000E+000	-3.73800E-001	9.43192E-004	5	..........a	-327.66
	51	10.4	-4.03655E-001	-5.52249E-008	0.00000E+000	-4.03800E-001	9.58492E-004	5	..........a	-327.66
	54	11	-4.33705E-001	-5.82148E-008	0.00000E+000	-4.33800E-001	9.44792E-004	5	..........a	-327.66
	57	11.6	-4.63642E-001	-6.11708E-008	0.00000E+000	-4.63800E-001	9.55092E-004	5	..........a	-327.66
	60	12.2	-4.93675E-001	-6.42676E-008	0.00000E+000	-4.93800E-001	9.47392E-004	5	..........a	-327.66
[...]
	1085	217.2	4.59975E-001	2.30691E-008	0.00000E+000	4.60000E-001	9.62992E-004	5	..........a	-327.66
	1086	217.4	4.49785E-001	2.16283E-008	0.00000E+000	4.50000E-001	9.61092E-004	5	..........a	-327.66
	1087	217.6	4.39949E-001	2.01937E-008	0.00000E+000	4.40000E-001	9.60992E-004	5	..........a	-327.66
	1088	217.8	4.29985E-001	1.88343E-008	0.00000E+000	4.30000E-001	9.57392E-004	5	..........a	-327.66
	1089	218	4.19995E-001	1.73559E-008	0.00000E+000	4.20000E-001	9.58392E-004	5	..........a	-327.66
	1090	218.2	4.09978E-001	1.58966E-008	0.00000E+000	4.10000E-001	9.72892E-004	5	..........a	-327.66
	1091	218.4	3.99978E-001	1.44310E-008	0.00000E+000	4.00000E-001	9.78492E-004	5	..........a	-327.66
	1092	218.6	3.90019E-001	1.29826E-008	0.00000E+000	3.90000E-001	9.54992E-004	5	..........a	-327.66
	1093	218.8	3.80037E-001	1.15808E-008	0.00000E+000	3.80000E-001	9.41392E-004	5	..........a	-327.66
	1094	219	3.70035E-001	1.01380E-008	0.00000E+000	3.70000E-001	9.68892E-004	5	..........a	-327.66
	1095	219.2	3.59961E-001	8.64380E-009	0.00000E+000	3.60000E-001	9.71992E-004	5	..........a	-327.66
	1096	219.4	3.49995E-001	7.16614E-009	0.00000E+000	3.50000E-001	9.68492E-004	5	..........a	-327.66
	1097	219.6	3.40068E-001	5.71441E-009	0.00000E+000	3.40000E-001	9.55792E-004	5	..........a	-327.66
	1098	219.8	3.30010E-001	4.23111E-009	0.00000E+000	3.30000E-001	9.62192E-004	5	..........a	-327.66
	1099	220	3.20010E-001	2.70824E-009	0.00000E+000	3.20000E-001	9.54492E-004	5	..........a	-327.66
	1100	220.2	3.10029E-001	1.18461E-009	0.00000E+000	3.10000E-001	9.63792E-004	5	..........a	-327.66
	1101	220.4	3.00064E-001	-4.54390E-010	0.00000E+000	3.00000E-001	9.61392E-004	5	..........a	-327.66
	1102	220.6	2.90012E-001	-2.10165E-009	0.00000E+000	2.90000E-001	9.76592E-004	5	..........a	-327.66
	1103	220.8	2.80042E-001	-3.77699E-009	0.00000E+000	2.80000E-001	9.72892E-004	5	..........a	-327.66
	1104	221	2.70100E-001	-5.53215E-009	0.00000E+000	2.70000E-001	9.52992E-004	5	..........a	-327.66
	1105	221.2	2.60058E-001	-7.32304E-009	0.00000E+000	2.60000E-001	9.45092E-004	5	..........a	-327.66
	1106	221.4	2.50059E-001	-9.20538E-009	0.00000E+000	2.50000E-001	9.64792E-004	5	..........a	-327.66
	1107	221.6	2.40058E-001	-1.11506E-008	0.00000E+000	2.40000E-001	9.52992E-004	5	..........a	-327.66
	1108	221.8	2.30022E-001	-1.31128E-008	0.00000E+000	2.30000E-001	9.60392E-004	5	..........a	-327.66
	1109	222	2.20018E-001	-1.50175E-008	0.00000E+000	2.20000E-001	9.41392E-004	5	..........a	-327.66
	1110	222.2	2.10027E-001	-1.68994E-008	0.00000E+000	2.10000E-001	9.42192E-004	5	..........a	-327.66
	1111	222.4	2.00072E-001	-1.86793E-008	0.00000E+000	2.00000E-001	9.61392E-004	5	..........a	-327.66
	1112	222.6	1.90115E-001	-2.02665E-008	0.00000E+000	1.90000E-001	9.57992E-004	5	..........a	-327.66
	1113	222.8	1.80102E-001	-2.16786E-008	0.00000E+000	1.80000E-001	9.37392E-004	5	..........a	-327.66
	1114	223	1.70087E-001	-2.27708E-008	0.00000E+000	1.70000E-001	9.51792E-004	5	..........a	-327.66
	1115	223.2	1.60069E-001	-2.36224E-008	0.00000E+000	1.60000E-001	9.66792E-004	5	..........a	-327.66
	1116	223.4	1.50112E-001	-2.41795E-008	0.00000E+000	1.50000E-001	9.66692E-004	5	..........a	-327.66
	1117	223.6	1.40128E-001	-2.45247E-008	0.00000E+000	1.40000E-001	9.44492E-004	5	..........a	-327.66
	1118	223.8	1.30098E-001	-2.46573E-008	0.00000E+000	1.30000E-001	9.60792E-004	5	..........a	-327.66
	1119	224	1.20098E-001	-2.46130E-008	0.00000E+000	1.20000E-001	9.59492E-004	5	..........a	-327.66
	1120	224.2	1.10134E-001	-2.43944E-008	0.00000E+000	1.10000E-001	9.53092E-004	5	..........a	-327.66

File: 20240424_D_GM0016_HL03_E01_CV50K.DTA
EXPLAIN
TAG	CV
TITLE	LABEL	Cyclic Voltammetry	Test &Identifier
DATE	LABEL	4/24/2024	Date
TIME	LABEL	16:54:05	Time
NOTES	NOTES	1	&Notes...

PSTAT	PSTAT	REF600P-43058	Potentiostat
VINIT	POTEN	0.00000E+000	T	Initial &E (V)
VLIMIT1	POTEN	-6.00000E-001	F	Scan Limit &1 (V)
VLIMIT2	POTEN	8.00000E-001	F	Scan Limit &2 (V)
VFINAL	POTEN	0.00000E+000	T	Final &E (V)
SCANRATE	QUANT	4.99999E+004	&Scan Rate (mV/s)
STEPSIZE	QUANT	1.00000E+001	St&ep Size (mV)
CYCLES	IQUANT	10	C&ycles (#)
IMODE	SELECTOR	0	I/E Range &Mode
IRANGE	QUANT	1.00000E-005	&Max Current (mA)
AREA	QUANT	1.00000E+000	Electrode &Area (cm^2)
ELECTRODETYPE	SELECTOR	0	Electrode Type
STRIPPING	TOGGLE	F	Used for Stripping
POLARITY	TOGGLE	F	Signal Polarity
CONDIT	TWOPARAM	F	1.50000E+001	0.00000E+000	Conditionin&g	Time(s)	E(V)
DELAY	TWOPARAM	T	1.00000E+001	0.00000E+000	Init. De&lay	Time(s)	Stab.(mV/s)
EQDELAY	QUANT	1.00000E+001	Equil. &Time (s)
IRCOMP	SELECTOR	0	IRCom&p
PFCOR	QUANT	5.00000E+001	PF Corr. (ohm)
SAMPLINGMODE	SELECTOR	1	Sampling &Mode
OCVCURVE	TABLE	39
	Pt	T	Vf	Vm	Ach	Over	Temp
	#	s	V vs. Ref.	V	V	bits	deg C
	0	0.258333	-1.56350E-001	-1.56350E-001	2.10992E-004	..........a	-327.66
	1	0.516667	-1.56368E-001	-1.57331E-001	2.08259E-004	..........a	-327.66
	2	0.775	-1.56484E-001	-1.58278E-001	2.15926E-004	..........a	-327.66
	3	1.03333	-1.56812E-001	-1.59212E-001	2.09259E-004	..........a	-327.66
	4	1.29167	-1.57403E-001	-1.60112E-001	2.05192E-004	..........a	-327.66
	5	1.55	-1.58197E-001	-1.60986E-001	2.05459E-004	..........a	-327.66
	6	1.80833	-1.59090E-001	-1.61843E-001	2.12259E-004	..........a	-327.66
	7	2.06667	-1.60001E-001	-1.62681E-001	2.02192E-004	..........a	-327.66
	8	2.325	-1.60894E-001	-1.63493E-001	2.02859E-004	..........a	-327.66
	9	2.58333	-1.61760E-001	-1.64297E-001	2.10126E-004	..........a	-327.66
	10	2.84167	-1.62600E-001	-1.65088E-001	2.09926E-004	..........a	-327.66
	11	3.1	-1.63421E-001	-1.65863E-001	2.03192E-004	..........a	-327.66
	12	3.35833	-1.64226E-001	-1.66625E-001	2.00859E-004	..........a	-327.66
	13	3.61667	-1.65016E-001	-1.67365E-001	2.06992E-004	..........a	-327.66
	14	3.875	-1.65791E-001	-1.68095E-001	1.98592E-004	..........a	-327.66
	15	4.13333	-1.66552E-001	-1.68815E-001	2.02192E-004	..........a	-327.66
	16	4.39167	-1.67298E-001	-1.69526E-001	2.10059E-004	..........a	-327.66
	17	4.65	-1.68030E-001	-1.70186E-001	2.00259E-004	..........a	-327.66
	18	4.90833	-1.68747E-001	-1.70833E-001	1.98859E-004	..........a	-327.66
	19	5.16667	-1.69444E-001	-1.71476E-001	2.12726E-004	..........a	-327.66
	20	5.425	-1.70120E-001	-1.72116E-001	2.03192E-004	..........a	-327.66
	21	5.68333	-1.70779E-001	-1.72760E-001	1.95992E-004	..........a	-327.66
	22	5.94167	-1.71426E-001	-1.73378E-001	2.04859E-004	..........a	-327.66
	23	6.2	-1.72066E-001	-1.73982E-001	1.98526E-004	..........a	-327.66
	24	6.45833	-1.72697E-001	-1.74574E-001	2.02526E-004	..........a	-327.66
	25	6.71667	-1.73318E-001	-1.75158E-001	2.08526E-004	..........a	-327.66
	26	6.975	-1.73925E-001	-1.75724E-001	1.96792E-004	..........a	-327.66
	27	7.23333	-1.74520E-001	-1.76278E-001	2.08192E-004	..........a	-327.66
	28	7.49167	-1.75102E-001	-1.76818E-001	2.09792E-004	..........a	-327.66
	29	7.75	-1.75670E-001	-1.77356E-001	2.08392E-004	..........a	-327.66
	30	8.00833	-1.76227E-001	-1.77895E-001	2.02392E-004	..........a	-327.66
	31	8.26667	-1.76773E-001	-1.78412E-001	2.00192E-004	..........a	-327.66
	32	8.525	-1.77312E-001	-1.78938E-001	2.08259E-004	..........a	-327.66
	33	8.78333	-1.77845E-001	-1.79446E-001	2.06392E-004	..........a	-327.66
	34	9.04167	-1.78370E-001	-1.79946E-001	2.08992E-004	..........a	-327.66
	35	9.3	-1.78889E-001	-1.80441E-001	1.99659E-004	..........a	-327.66
	36	9.5583	-1.79399E-001	-1.80909E-001	2.01859E-004	..........a	-327.66
	37	9.8167	-1.79900E-001	-1.81369E-001	1.97392E-004	..........a	-327.66
	38	10.075	-1.80388E-001	-1.81808E-001	2.01059E-004	..........a	-327.66
EOC	QUANT	-0.1803878	Open Circuit (V)
PSTATMODEL	IQUANT	7	Pstat Model
PSTATSECTION	LABEL	REF600P-43058	Pstat Section
PSTATSERIALNO	LABEL	43058	Pstat Serial Number
CTRLMODE	IQUANT	1	Control Mode
ELECTROMETER	IQUANT	0	RE=0 or CS=1
IESTAB	IQUANT	2	I/E Stability
CASPEED	IQUANT	4	Control Amp Speed
CONVENTION	IQUANT	1	Current Convention
ICHRANGE	IQUANT	2	Ich Range
ICHRANGEMODE	TOGGLE	F	Ich Auto Range
ICHOFFSETENABLE	TOGGLE	F	Ich Offset Enable
ICHOFFSET	QUANT	0	Ich Offset (V)
ICHFILTER	IQUANT	1	Ich Filter
VCHRANGE	IQUANT	2	Vch Range
VCHRANGEMODE	TOGGLE	F	Vch Auto Range
VCHOFFSETENABLE	TOGGLE	F	Vch Offset Enable
VCHOFFSET	QUANT	0	Vch Offset (V)
VCHFILTER	IQUANT	1	Vch Filter
ACHRANGE	IQUANT	2	Ach Range
ACHOFFSETENABLE	TOGGLE	F	Ach Offset Enable
ACHOFFSET	QUANT	0	Ach Offset (V)
ACHFILTER	IQUANT	1	Ach Filter
IERANGELOWERLIMIT	IQUANT	1	I/E Range Lower Limit
IERANGEMODE	TOGGLE	T	I/E AutoRange
IERANGE	IQUANT	4	I/E Range
POSFEEDENABLE	TOGGLE	F	Positive Feedback IR Comp
POSFEEDRESISTANCE	QUANT	0	Positive Feedback Resistance (ohm)
ACHSELECT	IQUANT	4	Ach Select
SENSECABLEID	IQUANT	7	Sense Cable ID
PWRCABLEID	IQUANT	7	Power Cable ID
DCCALDATE	LABEL	3/22/2024	DC Calibration Date
ACCALDATE	LABEL	3/22/2024	AC Calibration Date
THERMOSELECT	IQUANT	1	Thermo Select
FRAMEWORKVERSION	LABEL	7.8.4	Framework Version
INSTRUMENTVERSION	LABEL	4.42	Instrument Version
CURVE1	TABLE
	Pt	T	Vf	Im	Vu	Sig	Ach	IERange	Over	Temp
	#	s	V vs. Ref.	A	V	V	V	#	bits	deg C
	0	0.0002	-1.80303E-001	2.35001E-007	0.00000E+000	-1.80400E-001	8.15923E-005	8	..........a	-327.66
	2	0.0006	-2.00353E-001	-1.36506E-006	0.00000E+000	-2.00400E-001	8.15923E-005	8	..........a	-327.66
	4	0.001	-2.20453E-001	-2.29510E-006	0.00000E+000	-2.20400E-001	8.15923E-005	8	..........a	-327.66
	6	0.0014	-2.40353E-001	-2.95512E-006	0.00000E+000	-2.40400E-001	8.15923E-005	8	..........a	-327.66
	8	0.0018	-2.60353E-001	-3.52514E-006	0.00000E+000	-2.60400E-001	8.15923E-005	8	..........a	-327.66
	10	0.0022	-2.80353E-001	-3.88516E-006	0.00000E+000	-2.80400E-001	8.15923E-005	8	..........a	-327.66
	12	0.0026	-3.00353E-001	-4.25517E-006	0.00000E+000	-3.00400E-001	8.15923E-005	8	..........a	-327.66
	14	0.003	-3.20403E-001	-4.51518E-006	0.00000E+000	-3.20400E-001	8.15923E-005	8	..........a	-327.66
	16	0.0034	-3.40353E-001	-4.75519E-006	0.00000E+000	-3.40400E-001	8.15923E-005	8	..........a	-327.66
	18	0.0038	-3.60353E-001	-5.01520E-006	0.00000E+000	-3.60400E-001	8.15923E-005	8	..........a	-327.66
	20	0.0042	-3.80353E-001	-5.24521E-006	0.00000E+000	-3.80400E-001	8.15923E-005	8	..........a	-327.66
	22	0.0046	-4.00353E-001	-5.47522E-006	0.00000E+000	-4.00400E-001	-3.18408E-004	8	..........a	-327.66
	24	0.005	-4.20353E-001	-5.71523E-006	0.00000E+000	-4.20400E-001	8.15923E-005	8	..........a	-327.66
	26	0.0054	-4.40353E-001	-5.97524E-006	0.00000E+000	-4.40400E-001	8.15923E-005	8	..........a	-327.66
	28	0.0058	-4.60253E-001	-6.19525E-006	0.00000E+000	-4.60400E-001	8.15923E-005	8	..........a	-327.66
	30	0.0062	-4.80353E-001	-6.45526E-006	0.00000E+000	-4.80400E-001	8.15923E-005	8	..........a	-327.66
	32	0.0066	-5.00253E-001	-6.65526E-006	0.00000E+000	-5.00400E-001	8.15923E-005	8	..........a	-327.66
	34	0.007	-5.20353E-001	-6.88527E-006	0.00000E+000	-5.20400E-001	8.15923E-005	8	..........a	-327.66
	36	0.0074	-5.40353E-001	-7.12528E-006	0.00000E+000	-5.40400E-001	8.15923E-005	8	..........a	-327.66
[...]
	2766	0.5534	1.60047E-001	-1.27555E-005	0.00000E+000	1.60000E-001	8.15923E-005	8	..........a	-327.66
	2767	0.5536	1.50047E-001	-1.29255E-005	0.00000E+000	1.50000E-001	-2.18408E-004	8	..........a	-327.66
	2768	0.5538	1.40147E-001	-1.30355E-005	0.00000E+000	1.40000E-001	8.15923E-005	8	..........a	-327.66
	2769	0.554	1.30047E-001	-1.31755E-005	0.00000E+000	1.30000E-001	8.15923E-005	8	..........a	-327.66
	2770	0.5542	1.20247E-001	-1.32855E-005	0.00000E+000	1.20000E-001	8.15923E-005	8	..........a	-327.66
	2771	0.5544	1.10047E-001	-1.33255E-005	0.00000E+000	1.10000E-001	-3.18408E-004	8	..........a	-327.66
	2772	0.5546	1.00047E-001	-1.34355E-005	0.00000E+000	1.00000E-001	8.15923E-005	8	..........a	-327.66
	2773	0.5548	9.01471E-002	-1.35155E-005	0.00000E+000	9.00000E-002	-3.18408E-004	8	..........a	-327.66
	2774	0.555	8.00471E-002	-1.35555E-005	0.00000E+000	8.00000E-002	-3.18408E-004	8	..........a	-327.66
	2775	0.5552	7.01471E-002	-1.36355E-005	0.00000E+000	7.00000E-002	8.15923E-005	8	..........a	-327.66
	2776	0.5554	6.00471E-002	-1.37155E-005	0.00000E+000	6.00000E-002	8.15923E-005	8	..........a	-327.66
	2777	0.5556	5.00471E-002	-1.37055E-005	0.00000E+000	5.00000E-002	8.15923E-005	8	..........a	-327.66
	2778	0.5558	3.98471E-002	-1.37355E-005	0.00000E+000	4.00000E-002	8.15923E-005	8	..........a	-327.66
	2779	0.556	3.00471E-002	-1.37655E-005	0.00000E+000	3.00000E-002	8.15923E-005	8	..........a	-327.66
	2780	0.5562	2.01471E-002	-1.38055E-005	0.00000E+000	2.00000E-002	8.15923E-005	8	..........a	-327.66
	2781	0.5564	1.00471E-002	-1.37655E-005	0.00000E+000	1.00000E-002	8.15923E-005	8	..........a	-327.66
	2782	0.5566	4.71142E-005	-1.37655E-005	0.00000E+000	7.45058E-009	8.15923E-005	8	..........a	-327.66
	2783	0.5568	-9.95289E-003	-1.37955E-005	0.00000E+000	-1.00000E-002	8.15923E-005	8	..........a	-327.66
	2784	0.557	-1.98529E-002	-1.38055E-005	0.00000E+000	-2.00000E-002	8.15923E-005	8	..........a	-327.66
	2785	0.5572	-2.99529E-002	-1.37655E-005	0.00000E+000	-3.00000E-002	8.15923E-005	8	..........a	-327.66
	2786	0.5574	-3.98529E-002	-1.37255E-005	0.00000E+000	-4.00000E-002	8.15923E-005	8	..........a	-327.66
	2787	0.5576	-4.99529E-002	-1.36555E-005	0.00000E+000	-5.00000E-002	8.15923E-005	8	..........a	-327.66
	2788	0.5578	-5.99529E-002	-1.36555E-005	0.00000E+000	-6.00000E-002	8.15923E-005	8	..........a	-327.66
	2789	0.558	-6.99529E-002	-1.35955E-005	0.00000E+000	-7.00000E-002	8.15923E-005	8	..........a	-327.66
	2790	0.5582	-7.98529E-002	-1.35255E-005	0.00000E+000	-8.00000E-002	8.15923E-005	8	..........a	-327.66
	2791	0.5584	-8.98529E-002	-1.34455E-005	0.00000E+000	-9.00000E-002	8.15923E-005	8	..........a	-327.66
	2792	0.5586	-9.98529E-002	-1.33455E-005	0.00000E+000	-1.00000E-001	8.15923E-005	8	..........a	-327.66
	2793	0.5588	-1.09953E-001	-1.33055E-005	0.00000E+000	-1.10000E-001	8.15923E-005	8	..........a	-327.66
	2794	0.559	-1.19853E-001	-1.32055E-005	0.00000E+000	-1.20000E-001	8.15923E-005	8	..........a	-327.66
	2795	0.5592	-1.29953E-001	-1.31755E-005	0.00000E+000	-1.30000E-001	8.15923E-005	8	..........a	-327.66
	2796	0.5594	-1.40053E-001	-1.29855E-005	0.00000E+000	-1.40000E-001	8.15923E-005	8	..........a	-327.66
	2797	0.5596	-1.49953E-001	-1.28855E-005	0.00000E+000	-1.50000E-001	8.15923E-005	8	..........a	-327.66
	2798	0.5598	-1.59953E-001	-1.28455E-005	0.00000E+000	-1.60000E-001	8.15923E-005	8	..........a	-327.66
	2799	0.56	-1.69953E-001	-1.27655E-005	0.00000E+000	-1.70000E-001	8.15923E-005	8	..........a	-327.66
	2800	0.5602	-1.79953E-001	-1.25855E-005	0.00000E+000	-1.80000E-001	8.15923E-005	8	..........a	-327.66