Folder: GamryParser/data/raw/batch_data (part 20)

File: 20240522_C_GM0016_HL03_E01_CV50.DTA
EXPLAIN
TAG	CV
TITLE	LABEL	Cyclic Voltammetry	Test &Identifier
DATE	LABEL	5/22/2024	Date
TIME	LABEL	16:39:14	Time
NOTES	NOTES	1	&Notes...

PSTAT	PSTAT	REF600P-43058	Potentiostat
VINIT	POTEN	0.00000E+000	T	Initial &E (V)
VLIMIT1	POTEN	8.00000E-001	F	Scan Limit &1 (V)
VLIMIT2	POTEN	-6.00000E-001	F	Scan Limit &2 (V)
VFINAL	POTEN	0.00000E+000	T	Final &E (V)
SCANRATE	QUANT	4.99999E+001	&Scan Rate (mV/s)
STEPSIZE	QUANT	1.00000E+001	St&ep Size (mV)
CYCLES	IQUANT	4	C&ycles (#)
IMODE	SELECTOR	0	I/E Range &Mode
IRANGE	QUANT	1.00000E-005	&Max Current (mA)
AREA	QUANT	1.00000E+000	Electrode &Area (cm^2)
ELECTRODETYPE	SELECTOR	0	Electrode Type
STRIPPING	TOGGLE	F	Used for Stripping
POLARITY	TOGGLE	F	Signal Polarity
CONDIT	TWOPARAM	F	1.50000E+001	0.00000E+000	Conditionin&g	Time(s)	E(V)
DELAY	TWOPARAM	T	1.00000E+001	0.00000E+000	Init. De&lay	Time(s)	Stab.(mV/s)
EQDELAY	QUANT	5.00000E+000	Equil. &Time (s)
IRCOMP	SELECTOR	0	IRCom&p
PFCOR	QUANT	5.00000E+001	PF Corr. (ohm)
SAMPLINGMODE	SELECTOR	1	Sampling &Mode
OCVCURVE	TABLE	39
	Pt	T	Vf	Vm	Ach	Over	Temp
	#	s	V vs. Ref.	V	V	bits	deg C
	0	0.258333	3.42736E-002	3.42736E-002	2.55659E-004	..........a	-327.66
	1	0.516667	3.42152E-002	3.12190E-002	2.50726E-004	..........a	-327.66
	2	0.775	3.38562E-002	2.82881E-002	2.44526E-004	..........a	-327.66
	3	1.03333	3.28384E-002	2.54787E-002	2.54459E-004	..........a	-327.66
	4	1.29167	3.10133E-002	2.27783E-002	2.45192E-004	..........a	-327.66
	5	1.55	2.85793E-002	2.01852E-002	2.52192E-004	..........a	-327.66
	6	1.80833	2.58711E-002	1.77008E-002	2.67459E-004	..........a	-327.66
	7	2.06667	2.31382E-002	1.53152E-002	2.36326E-004	..........a	-327.66
	8	2.325	2.04968E-002	1.30218E-002	2.37792E-004	..........a	-327.66
	9	2.58333	1.79761E-002	1.08240E-002	2.32326E-004	..........a	-327.66
	10	2.84167	1.55703E-002	8.71060E-003	2.45992E-004	..........a	-327.66
	11	3.1	1.32673E-002	6.68308E-003	2.39792E-004	..........a	-327.66
	12	3.35833	1.10582E-002	4.73371E-003	2.45592E-004	..........a	-327.66
	13	3.61667	8.93704E-003	2.86217E-003	2.56526E-004	..........a	-327.66
	14	3.875	6.89958E-003	1.06182E-003	2.44592E-004	..........a	-327.66
	15	4.13333	4.94216E-003	-6.68436E-004	2.38859E-004	..........a	-327.66
	16	4.39167	3.06125E-003	-2.33230E-003	2.57459E-004	..........a	-327.66
	17	4.65	1.25343E-003	-3.93154E-003	2.37726E-004	..........a	-327.66
	18	4.90833	-4.84401E-004	-5.46833E-003	2.45259E-004	..........a	-327.66
	19	5.16667	-2.15507E-003	-6.94912E-003	2.57926E-004	..........a	-327.66
	20	5.425	-3.76140E-003	-8.37352E-003	2.51926E-004	..........a	-327.66
	21	5.68333	-5.30629E-003	-9.74308E-003	2.40392E-004	..........a	-327.66
	22	5.94167	-6.79254E-003	-1.10634E-002	2.46992E-004	..........a	-327.66
	23	6.2	-8.22276E-003	-1.23378E-002	2.41792E-004	..........a	-327.66
	24	6.45833	-9.59959E-003	-1.35592E-002	2.40592E-004	..........a	-327.66
	25	6.71667	-1.09254E-002	-1.47399E-002	2.35459E-004	..........a	-327.66
	26	6.975	-1.22021E-002	-1.58760E-002	2.46592E-004	..........a	-327.66
	27	7.23333	-1.34317E-002	-1.69742E-002	2.51459E-004	..........a	-327.66
	28	7.49167	-1.46164E-002	-1.80337E-002	2.45926E-004	..........a	-327.66
	29	7.75	-1.57588E-002	-1.90634E-002	2.46792E-004	..........a	-327.66
	30	8.00833	-1.68612E-002	-2.00396E-002	2.66792E-004	..........a	-327.66
	31	8.26667	-1.79250E-002	-2.09880E-002	2.51726E-004	..........a	-327.66
	32	8.525	-1.89505E-002	-2.19045E-002	2.50792E-004	..........a	-327.66
	33	8.78333	-1.99385E-002	-2.27882E-002	2.58459E-004	..........a	-327.66
	34	9.04167	-2.08909E-002	-2.36418E-002	2.45392E-004	..........a	-327.66
	35	9.3	-2.18099E-002	-2.44691E-002	2.49659E-004	..........a	-327.66
	36	9.5583	-2.26974E-002	-2.52661E-002	2.45926E-004	..........a	-327.66
	37	9.8167	-2.35549E-002	-2.60374E-002	2.56326E-004	..........a	-327.66
	38	10.075	-2.43835E-002	-2.67821E-002	2.48859E-004	..........a	-327.66
EOC	QUANT	-0.0243835	Open Circuit (V)
PSTATMODEL	IQUANT	7	Pstat Model
PSTATSECTION	LABEL	REF600P-43058	Pstat Section
PSTATSERIALNO	LABEL	43058	Pstat Serial Number
CTRLMODE	IQUANT	1	Control Mode
ELECTROMETER	IQUANT	0	RE=0 or CS=1
IESTAB	IQUANT	2	I/E Stability
CASPEED	IQUANT	4	Control Amp Speed
CONVENTION	IQUANT	1	Current Convention
ICHRANGE	IQUANT	2	Ich Range
ICHRANGEMODE	TOGGLE	F	Ich Auto Range
ICHOFFSETENABLE	TOGGLE	F	Ich Offset Enable
ICHOFFSET	QUANT	0	Ich Offset (V)
ICHFILTER	IQUANT	2	Ich Filter
VCHRANGE	IQUANT	2	Vch Range
VCHRANGEMODE	TOGGLE	F	Vch Auto Range
VCHOFFSETENABLE	TOGGLE	F	Vch Offset Enable
VCHOFFSET	QUANT	0	Vch Offset (V)
VCHFILTER	IQUANT	2	Vch Filter
ACHRANGE	IQUANT	2	Ach Range
ACHOFFSETENABLE	TOGGLE	F	Ach Offset Enable
ACHOFFSET	QUANT	0	Ach Offset (V)
ACHFILTER	IQUANT	1	Ach Filter
IERANGELOWERLIMIT	IQUANT	1	I/E Range Lower Limit
IERANGEMODE	TOGGLE	T	I/E AutoRange
IERANGE	IQUANT	4	I/E Range
POSFEEDENABLE	TOGGLE	F	Positive Feedback IR Comp
POSFEEDRESISTANCE	QUANT	0	Positive Feedback Resistance (ohm)
ACHSELECT	IQUANT	4	Ach Select
SENSECABLEID	IQUANT	7	Sense Cable ID
PWRCABLEID	IQUANT	7	Power Cable ID
DCCALDATE	LABEL	3/22/2024	DC Calibration Date
ACCALDATE	LABEL	3/22/2024	AC Calibration Date
THERMOSELECT	IQUANT	1	Thermo Select
FRAMEWORKVERSION	LABEL	7.8.4	Framework Version
INSTRUMENTVERSION	LABEL	4.42	Instrument Version
CURVE1	TABLE
	Pt	T	Vf	Im	Vu	Sig	Ach	IERange	Over	Temp
	#	s	V vs. Ref.	A	V	V	V	#	bits	deg C
	0	0.2	-2.43789E-002	3.29722E-009	0.00000E+000	-2.44000E-002	1.00439E-003	5	..........a	-327.66
	3	0.8	5.67849E-003	2.28928E-008	0.00000E+000	5.60001E-003	1.00239E-003	5	..........a	-327.66
	6	1.4	3.56665E-002	3.09076E-008	0.00000E+000	3.56000E-002	1.00529E-003	5	..........a	-327.66
	9	2	6.56145E-002	3.73852E-008	0.00000E+000	6.56000E-002	1.02209E-003	5	..........a	-327.66
	12	2.6	9.55607E-002	4.37184E-008	0.00000E+000	9.56000E-002	1.02199E-003	5	..........a	-327.66
	15	3.2	1.25698E-001	5.02251E-008	0.00000E+000	1.25600E-001	1.01169E-003	5	..........a	-327.66
	18	3.8	1.55618E-001	5.70280E-008	0.00000E+000	1.55600E-001	1.01779E-003	5	..........a	-327.66
	21	4.4	1.85593E-001	6.41636E-008	0.00000E+000	1.85600E-001	1.02069E-003	5	..........a	-327.66
	24	5	2.15643E-001	7.15728E-008	0.00000E+000	2.15600E-001	1.00529E-003	5	..........a	-327.66
	27	5.6	2.45610E-001	7.92530E-008	0.00000E+000	2.45600E-001	1.01059E-003	5	..........a	-327.66
	30	6.2	2.75528E-001	8.71721E-008	0.00000E+000	2.75600E-001	1.02559E-003	5	..........a	-327.66
	33	6.8	3.05529E-001	9.53696E-008	0.00000E+000	3.05600E-001	1.02239E-003	5	..........a	-327.66
	36	7.4	3.35579E-001	1.03768E-007	0.00000E+000	3.35600E-001	1.01989E-003	5	..........a	-327.66
	39	8	3.65591E-001	1.12453E-007	0.00000E+000	3.65600E-001	9.97092E-004	5	..........a	-327.66
	42	8.6	3.95576E-001	1.21496E-007	0.00000E+000	3.95600E-001	9.98192E-004	5	..........a	-327.66
	45	9.2	4.25497E-001	1.31452E-007	0.00000E+000	4.25600E-001	1.03639E-003	5	..........a	-327.66
	48	9.8	4.55570E-001	1.40448E-007	0.00000E+000	4.55600E-001	1.01359E-003	5	..........a	-327.66
	51	10.4	4.85523E-001	1.49902E-007	0.00000E+000	4.85600E-001	9.90592E-004	5	..........a	-327.66
	54	11	5.15532E-001	1.60216E-007	0.00000E+000	5.15600E-001	1.01779E-003	5	..........a	-327.66
	57	11.6	5.45510E-001	1.71959E-007	0.00000E+000	5.45600E-001	1.00189E-003	5	..........a	-327.66
	60	12.2	5.75554E-001	1.84734E-007	0.00000E+000	5.75600E-001	1.03049E-003	5	..........a	-327.66
[...]
	1085	217.2	-3.69872E-001	-2.88281E-008	0.00000E+000	-3.70000E-001	9.61392E-004	5	..........a	-327.66
	1086	217.4	-3.59903E-001	-2.59275E-008	0.00000E+000	-3.60000E-001	9.73592E-004	5	..........a	-327.66
	1087	217.6	-3.49886E-001	-2.31673E-008	0.00000E+000	-3.50000E-001	9.98092E-004	5	..........a	-327.66
	1088	217.8	-3.39843E-001	-2.05012E-008	0.00000E+000	-3.40000E-001	9.73892E-004	5	..........a	-327.66
	1089	218	-3.29917E-001	-1.78815E-008	0.00000E+000	-3.30000E-001	9.85992E-004	5	..........a	-327.66
	1090	218.2	-3.19864E-001	-1.53349E-008	0.00000E+000	-3.20000E-001	9.75092E-004	5	..........a	-327.66
	1091	218.4	-3.09917E-001	-1.28722E-008	0.00000E+000	-3.10000E-001	9.74092E-004	5	..........a	-327.66
	1092	218.6	-2.99856E-001	-1.04905E-008	0.00000E+000	-3.00000E-001	9.77792E-004	5	..........a	-327.66
	1093	218.8	-2.89906E-001	-8.12498E-009	0.00000E+000	-2.90000E-001	9.71492E-004	5	..........a	-327.66
	1094	219	-2.79898E-001	-5.82256E-009	0.00000E+000	-2.80000E-001	9.95192E-004	5	..........a	-327.66
	1095	219.2	-2.69876E-001	-3.58009E-009	0.00000E+000	-2.70000E-001	9.80492E-004	5	..........a	-327.66
	1096	219.4	-2.59842E-001	-1.35427E-009	0.00000E+000	-2.60000E-001	9.80492E-004	5	..........a	-327.66
	1097	219.6	-2.49899E-001	8.31588E-010	0.00000E+000	-2.50000E-001	9.76892E-004	5	..........a	-327.66
	1098	219.8	-2.39975E-001	3.02190E-009	0.00000E+000	-2.40000E-001	9.86592E-004	5	..........a	-327.66
	1099	220	-2.29959E-001	5.13560E-009	0.00000E+000	-2.30000E-001	9.96192E-004	5	..........a	-327.66
	1100	220.2	-2.19897E-001	7.25334E-009	0.00000E+000	-2.20000E-001	9.82292E-004	5	..........a	-327.66
	1101	220.4	-2.09945E-001	9.34281E-009	0.00000E+000	-2.10000E-001	1.00939E-003	5	..........a	-327.66
	1102	220.6	-1.99981E-001	1.14224E-008	0.00000E+000	-2.00000E-001	1.00259E-003	5	..........a	-327.66
	1103	220.8	-1.90006E-001	1.35220E-008	0.00000E+000	-1.90000E-001	9.86392E-004	5	..........a	-327.66
	1104	221	-1.79930E-001	1.56099E-008	0.00000E+000	-1.80000E-001	9.74592E-004	5	..........a	-327.66
	1105	221.2	-1.69913E-001	1.77306E-008	0.00000E+000	-1.70000E-001	9.93792E-004	5	..........a	-327.66
	1106	221.4	-1.59996E-001	1.98524E-008	0.00000E+000	-1.60000E-001	9.87892E-004	5	..........a	-327.66
	1107	221.6	-1.49988E-001	2.20370E-008	0.00000E+000	-1.50000E-001	9.92492E-004	5	..........a	-327.66
	1108	221.8	-1.39899E-001	2.43362E-008	0.00000E+000	-1.40000E-001	9.80992E-004	5	..........a	-327.66
	1109	222	-1.29963E-001	2.66590E-008	0.00000E+000	-1.30000E-001	1.00429E-003	5	..........a	-327.66
	1110	222.2	-1.19978E-001	2.90238E-008	0.00000E+000	-1.20000E-001	9.94292E-004	5	..........a	-327.66
	1111	222.4	-1.09969E-001	3.12065E-008	0.00000E+000	-1.10000E-001	9.80992E-004	5	..........a	-327.66
	1112	222.6	-9.99192E-002	3.33560E-008	0.00000E+000	-1.00000E-001	9.75892E-004	5	..........a	-327.66
	1113	222.8	-8.99206E-002	3.53820E-008	0.00000E+000	-9.00000E-002	9.91092E-004	5	..........a	-327.66
	1114	223	-7.99791E-002	3.73823E-008	0.00000E+000	-8.00000E-002	9.85092E-004	5	..........a	-327.66
	1115	223.2	-6.99477E-002	3.96596E-008	0.00000E+000	-7.00000E-002	9.77692E-004	5	..........a	-327.66
	1116	223.4	-5.99064E-002	4.19854E-008	0.00000E+000	-6.00000E-002	9.79492E-004	5	..........a	-327.66
	1117	223.6	-4.99601E-002	4.43583E-008	0.00000E+000	-5.00000E-002	9.86692E-004	5	..........a	-327.66
	1118	223.8	-3.99471E-002	4.66523E-008	0.00000E+000	-4.00000E-002	9.93292E-004	5	..........a	-327.66
	1119	224	-3.00071E-002	4.91650E-008	0.00000E+000	-3.00000E-002	9.98392E-004	5	..........a	-327.66
	1120	224.2	-1.99543E-002	5.16824E-008	0.00000E+000	-2.00000E-002	9.80692E-004	5	..........a	-327.66

File: 20240522_K_GM0016_HL03_E03_CV50.DTA
EXPLAIN
TAG	CV
TITLE	LABEL	Cyclic Voltammetry	Test &Identifier
DATE	LABEL	5/22/2024	Date
TIME	LABEL	17:23:24	Time
NOTES	NOTES	1	&Notes...

PSTAT	PSTAT	REF600P-43058	Potentiostat
VINIT	POTEN	0.00000E+000	T	Initial &E (V)
VLIMIT1	POTEN	8.00000E-001	F	Scan Limit &1 (V)
VLIMIT2	POTEN	-6.00000E-001	F	Scan Limit &2 (V)
VFINAL	POTEN	0.00000E+000	T	Final &E (V)
SCANRATE	QUANT	4.99999E+001	&Scan Rate (mV/s)
STEPSIZE	QUANT	1.00000E+001	St&ep Size (mV)
CYCLES	IQUANT	4	C&ycles (#)
IMODE	SELECTOR	0	I/E Range &Mode
IRANGE	QUANT	1.00000E-005	&Max Current (mA)
AREA	QUANT	1.00000E+000	Electrode &Area (cm^2)
ELECTRODETYPE	SELECTOR	0	Electrode Type
STRIPPING	TOGGLE	F	Used for Stripping
POLARITY	TOGGLE	F	Signal Polarity
CONDIT	TWOPARAM	F	1.50000E+001	0.00000E+000	Conditionin&g	Time(s)	E(V)
DELAY	TWOPARAM	T	1.00000E+001	0.00000E+000	Init. De&lay	Time(s)	Stab.(mV/s)
EQDELAY	QUANT	5.00000E+000	Equil. &Time (s)
IRCOMP	SELECTOR	0	IRCom&p
PFCOR	QUANT	5.00000E+001	PF Corr. (ohm)
SAMPLINGMODE	SELECTOR	1	Sampling &Mode
OCVCURVE	TABLE	39
	Pt	T	Vf	Vm	Ach	Over	Temp
	#	s	V vs. Ref.	V	V	bits	deg C
	0	0.258333	-6.03223E-002	-6.03223E-002	2.42259E-004	..........a	-327.66
	1	0.516667	-6.03228E-002	-6.03533E-002	2.56526E-004	..........a	-327.66
	2	0.775	-6.03267E-002	-6.03933E-002	2.42859E-004	..........a	-327.66
	3	1.03333	-6.03381E-002	-6.04260E-002	2.52126E-004	..........a	-327.66
	4	1.29167	-6.03594E-002	-6.04574E-002	2.41726E-004	..........a	-327.66
	5	1.55	-6.03884E-002	-6.04908E-002	2.49126E-004	..........a	-327.66
	6	1.80833	-6.04212E-002	-6.05259E-002	2.39926E-004	..........a	-327.66
	7	2.06667	-6.04550E-002	-6.05637E-002	2.46059E-004	..........a	-327.66
	8	2.325	-6.04893E-002	-6.05968E-002	2.45726E-004	..........a	-327.66
	9	2.58333	-6.05243E-002	-6.06376E-002	2.40592E-004	..........a	-327.66
	10	2.84167	-6.05598E-002	-6.06624E-002	2.56126E-004	..........a	-327.66
	11	3.1	-6.05952E-002	-6.07011E-002	2.47659E-004	..........a	-327.66
	12	3.35833	-6.06297E-002	-6.07319E-002	2.54192E-004	..........a	-327.66
	13	3.61667	-6.06635E-002	-6.07672E-002	2.32526E-004	..........a	-327.66
	14	3.875	-6.06971E-002	-6.08052E-002	2.48259E-004	..........a	-327.66
	15	4.13333	-6.07310E-002	-6.08360E-002	2.50126E-004	..........a	-327.66
	16	4.39167	-6.07656E-002	-6.08798E-002	2.56326E-004	..........a	-327.66
	17	4.65	-6.08009E-002	-6.09074E-002	2.46526E-004	..........a	-327.66
	18	4.90833	-6.08367E-002	-6.09507E-002	2.58526E-004	..........a	-327.66
	19	5.16667	-6.08725E-002	-6.09744E-002	2.57259E-004	..........a	-327.66
	20	5.425	-6.09077E-002	-6.10075E-002	2.49926E-004	..........a	-327.66
	21	5.68333	-6.09416E-002	-6.10437E-002	2.42592E-004	..........a	-327.66
	22	5.94167	-6.09744E-002	-6.10728E-002	2.56859E-004	..........a	-327.66
	23	6.2	-6.10069E-002	-6.11159E-002	2.50792E-004	..........a	-327.66
	24	6.45833	-6.10400E-002	-6.11411E-002	2.51392E-004	..........a	-327.66
	25	6.71667	-6.10738E-002	-6.11762E-002	2.46126E-004	..........a	-327.66
	26	6.975	-6.11076E-002	-6.12127E-002	2.59392E-004	..........a	-327.66
	27	7.23333	-6.11411E-002	-6.12412E-002	2.41326E-004	..........a	-327.66
	28	7.49167	-6.11745E-002	-6.12804E-002	2.52659E-004	..........a	-327.66
	29	7.75	-6.12078E-002	-6.13040E-002	2.60459E-004	..........a	-327.66
	30	8.00833	-6.12409E-002	-6.13438E-002	2.43926E-004	..........a	-327.66
	31	8.26667	-6.12736E-002	-6.13748E-002	2.59192E-004	..........a	-327.66
	32	8.525	-6.13062E-002	-6.14018E-002	2.58926E-004	..........a	-327.66
	33	8.78333	-6.13387E-002	-6.14442E-002	2.54326E-004	..........a	-327.66
	34	9.04167	-6.13713E-002	-6.14743E-002	2.52392E-004	..........a	-327.66
	35	9.3	-6.14048E-002	-6.15264E-002	2.39592E-004	..........a	-327.66
	36	9.5583	-6.14401E-002	-6.15486E-002	2.73059E-004	..........a	-327.66
	37	9.8167	-6.14767E-002	-6.15737E-002	2.45059E-004	..........a	-327.66
	38	10.075	-6.15120E-002	-6.16067E-002	2.54059E-004	..........a	-327.66
EOC	QUANT	-0.061512	Open Circuit (V)
PSTATMODEL	IQUANT	7	Pstat Model
PSTATSECTION	LABEL	REF600P-43058	Pstat Section
PSTATSERIALNO	LABEL	43058	Pstat Serial Number
CTRLMODE	IQUANT	1	Control Mode
ELECTROMETER	IQUANT	0	RE=0 or CS=1
IESTAB	IQUANT	2	I/E Stability
CASPEED	IQUANT	4	Control Amp Speed
CONVENTION	IQUANT	1	Current Convention
ICHRANGE	IQUANT	2	Ich Range
ICHRANGEMODE	TOGGLE	F	Ich Auto Range
ICHOFFSETENABLE	TOGGLE	F	Ich Offset Enable
ICHOFFSET	QUANT	0	Ich Offset (V)
ICHFILTER	IQUANT	2	Ich Filter
VCHRANGE	IQUANT	2	Vch Range
VCHRANGEMODE	TOGGLE	F	Vch Auto Range
VCHOFFSETENABLE	TOGGLE	F	Vch Offset Enable
VCHOFFSET	QUANT	0	Vch Offset (V)
VCHFILTER	IQUANT	2	Vch Filter
ACHRANGE	IQUANT	2	Ach Range
ACHOFFSETENABLE	TOGGLE	F	Ach Offset Enable
ACHOFFSET	QUANT	0	Ach Offset (V)
ACHFILTER	IQUANT	1	Ach Filter
IERANGELOWERLIMIT	IQUANT	1	I/E Range Lower Limit
IERANGEMODE	TOGGLE	T	I/E AutoRange
IERANGE	IQUANT	4	I/E Range
POSFEEDENABLE	TOGGLE	F	Positive Feedback IR Comp
POSFEEDRESISTANCE	QUANT	0	Positive Feedback Resistance (ohm)
ACHSELECT	IQUANT	4	Ach Select
SENSECABLEID	IQUANT	7	Sense Cable ID
PWRCABLEID	IQUANT	7	Power Cable ID
DCCALDATE	LABEL	3/22/2024	DC Calibration Date
ACCALDATE	LABEL	3/22/2024	AC Calibration Date
THERMOSELECT	IQUANT	1	Thermo Select
FRAMEWORKVERSION	LABEL	7.8.4	Framework Version
INSTRUMENTVERSION	LABEL	4.42	Instrument Version
CURVE1	TABLE
	Pt	T	Vf	Im	Vu	Sig	Ach	IERange	Over	Temp
	#	s	V vs. Ref.	A	V	V	V	#	bits	deg C
	0	0.2	-6.13097E-002	2.88277E-010	0.00000E+000	-6.15000E-002	1.00359E-003	5	..........a	-327.66
	3	0.8	-3.14597E-002	2.21168E-008	0.00000E+000	-3.15000E-002	1.00029E-003	5	..........a	-327.66
	6	1.4	-1.46536E-003	3.21791E-008	0.00000E+000	-1.50000E-003	1.01389E-003	5	..........a	-327.66
	9	2	2.85197E-002	4.04065E-008	0.00000E+000	2.85000E-002	1.01689E-003	5	..........a	-327.66
	12	2.6	5.86199E-002	4.84968E-008	0.00000E+000	5.85000E-002	9.95392E-004	5	..........a	-327.66
	15	3.2	8.85608E-002	5.67230E-008	0.00000E+000	8.85000E-002	1.00019E-003	5	..........a	-327.66
	18	3.8	1.18533E-001	6.52918E-008	0.00000E+000	1.18500E-001	1.00969E-003	5	..........a	-327.66
	21	4.4	1.48544E-001	7.44045E-008	0.00000E+000	1.48500E-001	1.01489E-003	5	..........a	-327.66
	24	5	1.78623E-001	8.38863E-008	0.00000E+000	1.78500E-001	9.82092E-004	5	..........a	-327.66
	27	5.6	2.08482E-001	9.36021E-008	0.00000E+000	2.08500E-001	1.01369E-003	5	..........a	-327.66
	30	6.2	2.38490E-001	1.03047E-007	0.00000E+000	2.38500E-001	1.02129E-003	5	..........a	-327.66
	33	6.8	2.68518E-001	1.11355E-007	0.00000E+000	2.68500E-001	1.01449E-003	5	..........a	-327.66
	36	7.4	2.98574E-001	1.18052E-007	0.00000E+000	2.98500E-001	9.77892E-004	5	..........a	-327.66
	39	8	3.28470E-001	1.23352E-007	0.00000E+000	3.28500E-001	1.02219E-003	5	..........a	-327.66
	42	8.6	3.58416E-001	1.29830E-007	0.00000E+000	3.58500E-001	1.02179E-003	5	..........a	-327.66
	45	9.2	3.88442E-001	1.36241E-007	0.00000E+000	3.88500E-001	1.01479E-003	5	..........a	-327.66
	48	9.8	4.18484E-001	1.43332E-007	0.00000E+000	4.18500E-001	1.01279E-003	5	..........a	-327.66
	51	10.4	4.48479E-001	1.49875E-007	0.00000E+000	4.48500E-001	1.00289E-003	5	..........a	-327.66
	54	11	4.78366E-001	1.56029E-007	0.00000E+000	4.78500E-001	1.02599E-003	5	..........a	-327.66
	57	11.6	5.08401E-001	1.61826E-007	0.00000E+000	5.08500E-001	1.01439E-003	5	..........a	-327.66
	60	12.2	5.38436E-001	1.67972E-007	0.00000E+000	5.38500E-001	1.00709E-003	5	..........a	-327.66
[...]
	1085	217.2	-4.09852E-001	-4.01128E-008	0.00000E+000	-4.10000E-001	1.02879E-003	5	..........a	-327.66
	1086	217.4	-3.99859E-001	-3.67678E-008	0.00000E+000	-4.00000E-001	1.01279E-003	5	..........a	-327.66
	1087	217.6	-3.89918E-001	-3.35528E-008	0.00000E+000	-3.90000E-001	1.02829E-003	5	..........a	-327.66
	1088	217.8	-3.79829E-001	-3.04640E-008	0.00000E+000	-3.80000E-001	1.01009E-003	5	..........a	-327.66
	1089	218	-3.69868E-001	-2.74978E-008	0.00000E+000	-3.70000E-001	1.03119E-003	5	..........a	-327.66
	1090	218.2	-3.59875E-001	-2.46270E-008	0.00000E+000	-3.60000E-001	1.00569E-003	5	..........a	-327.66
	1091	218.4	-3.49878E-001	-2.18609E-008	0.00000E+000	-3.50000E-001	1.01749E-003	5	..........a	-327.66
	1092	218.6	-3.39809E-001	-1.91935E-008	0.00000E+000	-3.40000E-001	1.00709E-003	5	..........a	-327.66
	1093	218.8	-3.29902E-001	-1.65861E-008	0.00000E+000	-3.30000E-001	1.00619E-003	5	..........a	-327.66
	1094	219	-3.19847E-001	-1.40620E-008	0.00000E+000	-3.20000E-001	1.01459E-003	5	..........a	-327.66
	1095	219.2	-3.09907E-001	-1.16059E-008	0.00000E+000	-3.10000E-001	1.01629E-003	5	..........a	-327.66
	1096	219.4	-2.99838E-001	-9.21930E-009	0.00000E+000	-3.00000E-001	9.93692E-004	5	..........a	-327.66
	1097	219.6	-2.89909E-001	-6.87444E-009	0.00000E+000	-2.90000E-001	1.01949E-003	5	..........a	-327.66
	1098	219.8	-2.79855E-001	-4.56411E-009	0.00000E+000	-2.80000E-001	1.00419E-003	5	..........a	-327.66
	1099	220	-2.69874E-001	-2.31985E-009	0.00000E+000	-2.70000E-001	1.00719E-003	5	..........a	-327.66
	1100	220.2	-2.59811E-001	-7.33962E-011	0.00000E+000	-2.60000E-001	1.00179E-003	5	..........a	-327.66
	1101	220.4	-2.49911E-001	2.14095E-009	0.00000E+000	-2.50000E-001	1.02769E-003	5	..........a	-327.66
	1102	220.6	-2.39943E-001	4.30255E-009	0.00000E+000	-2.40000E-001	1.00539E-003	5	..........a	-327.66
	1103	220.8	-2.29938E-001	6.41157E-009	0.00000E+000	-2.30000E-001	1.01129E-003	5	..........a	-327.66
	1104	221	-2.19888E-001	8.54337E-009	0.00000E+000	-2.20000E-001	1.01839E-003	5	..........a	-327.66
	1105	221.2	-2.09919E-001	1.06583E-008	0.00000E+000	-2.10000E-001	1.00299E-003	5	..........a	-327.66
	1106	221.4	-1.99986E-001	1.27522E-008	0.00000E+000	-2.00000E-001	1.01279E-003	5	..........a	-327.66
	1107	221.6	-1.89982E-001	1.48225E-008	0.00000E+000	-1.90000E-001	1.00029E-003	5	..........a	-327.66
	1108	221.8	-1.79910E-001	1.69363E-008	0.00000E+000	-1.80000E-001	1.00349E-003	5	..........a	-327.66
	1109	222	-1.69906E-001	1.90177E-008	0.00000E+000	-1.70000E-001	1.01679E-003	5	..........a	-327.66
	1110	222.2	-1.59995E-001	2.11150E-008	0.00000E+000	-1.60000E-001	1.01079E-003	5	..........a	-327.66
	1111	222.4	-1.49994E-001	2.32297E-008	0.00000E+000	-1.50000E-001	1.02469E-003	5	..........a	-327.66
	1112	222.6	-1.39898E-001	2.53381E-008	0.00000E+000	-1.40000E-001	1.01279E-003	5	..........a	-327.66
	1113	222.8	-1.29975E-001	2.74678E-008	0.00000E+000	-1.30000E-001	1.03089E-003	5	..........a	-327.66
	1114	223	-1.19961E-001	2.96284E-008	0.00000E+000	-1.20000E-001	1.02119E-003	5	..........a	-327.66
	1115	223.2	-1.09969E-001	3.18015E-008	0.00000E+000	-1.10000E-001	1.02589E-003	5	..........a	-327.66
	1116	223.4	-9.99164E-002	3.40070E-008	0.00000E+000	-1.00000E-001	1.00149E-003	5	..........a	-327.66
	1117	223.6	-8.99063E-002	3.62452E-008	0.00000E+000	-9.00000E-002	1.02819E-003	5	..........a	-327.66
	1118	223.8	-7.99924E-002	3.84994E-008	0.00000E+000	-8.00000E-002	1.02259E-003	5	..........a	-327.66
	1119	224	-6.99312E-002	4.08086E-008	0.00000E+000	-7.00000E-002	1.01009E-003	5	..........a	-327.66
	1120	224.2	-5.98789E-002	4.31769E-008	0.00000E+000	-6.00000E-002	1.00569E-003	5	..........a	-327.66