Folder: GamryParser/data/raw/batch_data (part 12)

File: 20240424_ZA_GM0016_HL03_E07_CV50.DTA
EXPLAIN
TAG	CV
TITLE	LABEL	Cyclic Voltammetry	Test &Identifier
DATE	LABEL	4/24/2024	Date
TIME	LABEL	18:14:01	Time
NOTES	NOTES	1	&Notes...

PSTAT	PSTAT	REF600P-43058	Potentiostat
VINIT	POTEN	0.00000E+000	T	Initial &E (V)
VLIMIT1	POTEN	-6.00000E-001	F	Scan Limit &1 (V)
VLIMIT2	POTEN	8.00000E-001	F	Scan Limit &2 (V)
VFINAL	POTEN	0.00000E+000	T	Final &E (V)
SCANRATE	QUANT	4.99999E+001	&Scan Rate (mV/s)
STEPSIZE	QUANT	1.00000E+001	St&ep Size (mV)
CYCLES	IQUANT	4	C&ycles (#)
IMODE	SELECTOR	0	I/E Range &Mode
IRANGE	QUANT	1.00000E-005	&Max Current (mA)
AREA	QUANT	1.00000E+000	Electrode &Area (cm^2)
ELECTRODETYPE	SELECTOR	0	Electrode Type
STRIPPING	TOGGLE	F	Used for Stripping
POLARITY	TOGGLE	F	Signal Polarity
CONDIT	TWOPARAM	F	1.50000E+001	0.00000E+000	Conditionin&g	Time(s)	E(V)
DELAY	TWOPARAM	T	1.00000E+001	0.00000E+000	Init. De&lay	Time(s)	Stab.(mV/s)
EQDELAY	QUANT	1.00000E+001	Equil. &Time (s)
IRCOMP	SELECTOR	0	IRCom&p
PFCOR	QUANT	5.00000E+001	PF Corr. (ohm)
SAMPLINGMODE	SELECTOR	1	Sampling &Mode
OCVCURVE	TABLE	39
	Pt	T	Vf	Vm	Ach	Over	Temp
	#	s	V vs. Ref.	V	V	bits	deg C
	0	0.258333	-5.58859E-002	-5.58859E-002	2.33259E-004	..........a	-327.66
	1	0.516667	-5.58895E-002	-5.60745E-002	2.30392E-004	..........a	-327.66
	2	0.775	-5.59117E-002	-5.62569E-002	2.49726E-004	..........a	-327.66
	3	1.03333	-5.59749E-002	-5.64436E-002	2.42526E-004	..........a	-327.66
	4	1.29167	-5.60896E-002	-5.66292E-002	2.42592E-004	..........a	-327.66
	5	1.55	-5.62455E-002	-5.68119E-002	2.47059E-004	..........a	-327.66
	6	1.80833	-5.64235E-002	-5.69859E-002	2.41592E-004	..........a	-327.66
	7	2.06667	-5.66083E-002	-5.71678E-002	2.30726E-004	..........a	-327.66
	8	2.325	-5.67925E-002	-5.73561E-002	2.40459E-004	..........a	-327.66
	9	2.58333	-5.69750E-002	-5.75427E-002	2.14192E-004	..........a	-327.66
	10	2.84167	-5.71574E-002	-5.77088E-002	2.45992E-004	..........a	-327.66
	11	3.1	-5.73395E-002	-5.78802E-002	2.39992E-004	..........a	-327.66
	12	3.35833	-5.75191E-002	-5.80576E-002	2.36926E-004	..........a	-327.66
	13	3.61667	-5.76954E-002	-5.82328E-002	2.28926E-004	..........a	-327.66
	14	3.875	-5.78699E-002	-5.84030E-002	2.29792E-004	..........a	-327.66
	15	4.13333	-5.80436E-002	-5.85691E-002	2.37126E-004	..........a	-327.66
	16	4.39167	-5.82162E-002	-5.87346E-002	2.46392E-004	..........a	-327.66
	17	4.65	-5.83868E-002	-5.89007E-002	2.34659E-004	..........a	-327.66
	18	4.90833	-5.85552E-002	-5.90660E-002	2.47726E-004	..........a	-327.66
	19	5.16667	-5.87219E-002	-5.92295E-002	2.53326E-004	..........a	-327.66
	20	5.425	-5.88874E-002	-5.93914E-002	2.39126E-004	..........a	-327.66
	21	5.68333	-5.90520E-002	-5.95495E-002	2.52459E-004	..........a	-327.66
	22	5.94167	-5.92152E-002	-5.97073E-002	2.46059E-004	..........a	-327.66
	23	6.2	-5.93767E-002	-5.98654E-002	2.51126E-004	..........a	-327.66
	24	6.45833	-5.95364E-002	-6.00163E-002	2.46059E-004	..........a	-327.66
	25	6.71667	-5.96944E-002	-6.01803E-002	2.41792E-004	..........a	-327.66
	26	6.975	-5.98512E-002	-6.03204E-002	2.36926E-004	..........a	-327.66
	27	7.23333	-6.00065E-002	-6.04616E-002	2.30726E-004	..........a	-327.66
	28	7.49167	-6.01585E-002	-6.06027E-002	2.28126E-004	..........a	-327.66
	29	7.75	-6.03063E-002	-6.07440E-002	2.43992E-004	..........a	-327.66
	30	8.00833	-6.04503E-002	-6.08828E-002	2.27459E-004	..........a	-327.66
	31	8.26667	-6.05917E-002	-6.10107E-002	2.28859E-004	..........a	-327.66
	32	8.525	-6.07308E-002	-6.11427E-002	2.40392E-004	..........a	-327.66
	33	8.78333	-6.08673E-002	-6.12830E-002	2.30926E-004	..........a	-327.66
	34	9.04167	-6.10019E-002	-6.14135E-002	2.33126E-004	..........a	-327.66
	35	9.3	-6.11358E-002	-6.15488E-002	2.41059E-004	..........a	-327.66
	36	9.5583	-6.12699E-002	-6.16827E-002	2.32926E-004	..........a	-327.66
	37	9.8167	-6.14039E-002	-6.18090E-002	2.34926E-004	..........a	-327.66
	38	10.075	-6.15373E-002	-6.19429E-002	2.37126E-004	..........a	-327.66
EOC	QUANT	-0.0615373	Open Circuit (V)
PSTATMODEL	IQUANT	7	Pstat Model
PSTATSECTION	LABEL	REF600P-43058	Pstat Section
PSTATSERIALNO	LABEL	43058	Pstat Serial Number
CTRLMODE	IQUANT	1	Control Mode
ELECTROMETER	IQUANT	0	RE=0 or CS=1
IESTAB	IQUANT	2	I/E Stability
CASPEED	IQUANT	4	Control Amp Speed
CONVENTION	IQUANT	1	Current Convention
ICHRANGE	IQUANT	2	Ich Range
ICHRANGEMODE	TOGGLE	F	Ich Auto Range
ICHOFFSETENABLE	TOGGLE	F	Ich Offset Enable
ICHOFFSET	QUANT	0	Ich Offset (V)
ICHFILTER	IQUANT	2	Ich Filter
VCHRANGE	IQUANT	2	Vch Range
VCHRANGEMODE	TOGGLE	F	Vch Auto Range
VCHOFFSETENABLE	TOGGLE	F	Vch Offset Enable
VCHOFFSET	QUANT	0	Vch Offset (V)
VCHFILTER	IQUANT	2	Vch Filter
ACHRANGE	IQUANT	2	Ach Range
ACHOFFSETENABLE	TOGGLE	F	Ach Offset Enable
ACHOFFSET	QUANT	0	Ach Offset (V)
ACHFILTER	IQUANT	1	Ach Filter
IERANGELOWERLIMIT	IQUANT	1	I/E Range Lower Limit
IERANGEMODE	TOGGLE	T	I/E AutoRange
IERANGE	IQUANT	4	I/E Range
POSFEEDENABLE	TOGGLE	F	Positive Feedback IR Comp
POSFEEDRESISTANCE	QUANT	0	Positive Feedback Resistance (ohm)
ACHSELECT	IQUANT	4	Ach Select
SENSECABLEID	IQUANT	7	Sense Cable ID
PWRCABLEID	IQUANT	7	Power Cable ID
DCCALDATE	LABEL	3/22/2024	DC Calibration Date
ACCALDATE	LABEL	3/22/2024	AC Calibration Date
THERMOSELECT	IQUANT	1	Thermo Select
FRAMEWORKVERSION	LABEL	7.8.4	Framework Version
INSTRUMENTVERSION	LABEL	4.42	Instrument Version
CURVE1	TABLE
	Pt	T	Vf	Im	Vu	Sig	Ach	IERange	Over	Temp
	#	s	V vs. Ref.	A	V	V	V	#	bits	deg C
	0	0.2	-6.14457E-002	9.30331E-010	0.00000E+000	-6.15500E-002	9.79892E-004	5	..........a	-327.66
	2	0.6	-8.14736E-002	-4.15735E-009	0.00000E+000	-8.15500E-002	9.80192E-004	5	..........a	-327.66
	4	1	-1.01490E-001	-7.70171E-009	0.00000E+000	-1.01550E-001	9.93292E-004	5	..........a	-327.66
	6	1.4	-1.21496E-001	-1.07797E-008	0.00000E+000	-1.21550E-001	9.70192E-004	5	..........a	-327.66
	8	1.8	-1.41472E-001	-1.36069E-008	0.00000E+000	-1.41550E-001	9.77292E-004	5	..........a	-327.66
	10	2.2	-1.61511E-001	-1.63422E-008	0.00000E+000	-1.61550E-001	9.71092E-004	5	..........a	-327.66
	12	2.6	-1.81434E-001	-1.89460E-008	0.00000E+000	-1.81550E-001	9.70992E-004	5	..........a	-327.66
	14	3	-2.01515E-001	-2.15340E-008	0.00000E+000	-2.01550E-001	9.82792E-004	5	..........a	-327.66
	16	3.4	-2.21425E-001	-2.40112E-008	0.00000E+000	-2.21550E-001	9.74492E-004	5	..........a	-327.66
	18	3.8	-2.41338E-001	-2.65030E-008	0.00000E+000	-2.41550E-001	9.94292E-004	5	..........a	-327.66
	20	4.2	-2.61356E-001	-2.89912E-008	0.00000E+000	-2.61550E-001	9.83692E-004	5	..........a	-327.66
	22	4.6	-2.81475E-001	-3.15768E-008	0.00000E+000	-2.81550E-001	9.85292E-004	5	..........a	-327.66
	24	5	-3.01413E-001	-3.42489E-008	0.00000E+000	-3.01550E-001	9.79292E-004	5	..........a	-327.66
	26	5.4	-3.21429E-001	-3.69834E-008	0.00000E+000	-3.21550E-001	9.78092E-004	5	..........a	-327.66
	28	5.8	-3.41357E-001	-3.98630E-008	0.00000E+000	-3.41550E-001	1.00799E-003	5	..........a	-327.66
	30	6.2	-3.61452E-001	-4.28814E-008	0.00000E+000	-3.61550E-001	9.85492E-004	5	..........a	-327.66
	32	6.6	-3.81396E-001	-4.59378E-008	0.00000E+000	-3.81550E-001	9.68992E-004	5	..........a	-327.66
	34	7	-4.01430E-001	-4.90457E-008	0.00000E+000	-4.01550E-001	9.85092E-004	5	..........a	-327.66
	36	7.4	-4.21350E-001	-5.21657E-008	0.00000E+000	-4.21550E-001	9.73792E-004	5	..........a	-327.66
	38	7.8	-4.41417E-001	-5.52552E-008	0.00000E+000	-4.41550E-001	9.82792E-004	5	..........a	-327.66
[...]
	1085	217.2	2.90066E-001	-2.55388E-008	0.00000E+000	2.90000E-001	9.59092E-004	5	..........a	-327.66
	1086	217.4	2.79992E-001	-2.83342E-008	0.00000E+000	2.80000E-001	9.79192E-004	5	..........a	-327.66
	1087	217.6	2.70106E-001	-3.13670E-008	0.00000E+000	2.70000E-001	9.48392E-004	5	..........a	-327.66
	1088	217.8	2.60067E-001	-3.44850E-008	0.00000E+000	2.60000E-001	9.64692E-004	5	..........a	-327.66
	1089	218	2.49990E-001	-3.78127E-008	0.00000E+000	2.50000E-001	9.71092E-004	5	..........a	-327.66
	1090	218.2	2.40059E-001	-4.12674E-008	0.00000E+000	2.40000E-001	9.73792E-004	5	..........a	-327.66
	1091	218.4	2.30072E-001	-4.47304E-008	0.00000E+000	2.30000E-001	9.69592E-004	5	..........a	-327.66
	1092	218.6	2.20011E-001	-4.81995E-008	0.00000E+000	2.20000E-001	9.46092E-004	5	..........a	-327.66
	1093	218.8	2.10049E-001	-5.15441E-008	0.00000E+000	2.10000E-001	9.68592E-004	5	..........a	-327.66
	1094	219	2.00074E-001	-5.45445E-008	0.00000E+000	2.00000E-001	9.65392E-004	5	..........a	-327.66
	1095	219.2	1.90118E-001	-5.71300E-008	0.00000E+000	1.90000E-001	9.61492E-004	5	..........a	-327.66
	1096	219.4	1.80124E-001	-5.90288E-008	0.00000E+000	1.80000E-001	9.59292E-004	5	..........a	-327.66
	1097	219.6	1.70110E-001	-6.02488E-008	0.00000E+000	1.70000E-001	9.47992E-004	5	..........a	-327.66
	1098	219.8	1.60090E-001	-6.06003E-008	0.00000E+000	1.60000E-001	9.62792E-004	5	..........a	-327.66
	1099	220	1.50086E-001	-6.01285E-008	0.00000E+000	1.50000E-001	9.69292E-004	5	..........a	-327.66
	1100	220.2	1.40136E-001	-5.88658E-008	0.00000E+000	1.40000E-001	9.49892E-004	5	..........a	-327.66
	1101	220.4	1.30078E-001	-5.69873E-008	0.00000E+000	1.30000E-001	9.62692E-004	5	..........a	-327.66
	1102	220.6	1.20075E-001	-5.45957E-008	0.00000E+000	1.20000E-001	9.62892E-004	5	..........a	-327.66
	1103	220.8	1.10113E-001	-5.19248E-008	0.00000E+000	1.10000E-001	9.59092E-004	5	..........a	-327.66
	1104	221	1.00126E-001	-4.91996E-008	0.00000E+000	1.00000E-001	9.55292E-004	5	..........a	-327.66
	1105	221.2	9.01096E-002	-4.66590E-008	0.00000E+000	9.00000E-002	9.60092E-004	5	..........a	-327.66
	1106	221.4	8.00861E-002	-4.44055E-008	0.00000E+000	8.00000E-002	9.58192E-004	5	..........a	-327.66
	1107	221.6	7.00275E-002	-4.26220E-008	0.00000E+000	7.00000E-002	9.60692E-004	5	..........a	-327.66
	1108	221.8	6.01104E-002	-4.12319E-008	0.00000E+000	6.00000E-002	9.56092E-004	5	..........a	-327.66
	1109	222	5.00631E-002	-4.03401E-008	0.00000E+000	5.00000E-002	9.71592E-004	5	..........a	-327.66
	1110	222.2	4.00086E-002	-3.98993E-008	0.00000E+000	4.00000E-002	9.58892E-004	5	..........a	-327.66
	1111	222.4	3.00884E-002	-3.98036E-008	0.00000E+000	3.00000E-002	9.88492E-004	5	..........a	-327.66
	1112	222.6	2.01659E-002	-4.01213E-008	0.00000E+000	2.00000E-002	9.66692E-004	5	..........a	-327.66
	1113	222.8	1.01145E-002	-4.14180E-008	0.00000E+000	1.00000E-002	9.49292E-004	5	..........a	-327.66
	1114	223	2.59917E-005	-4.23897E-008	0.00000E+000	7.45058E-009	9.60292E-004	5	..........a	-327.66
	1115	223.2	-9.86701E-003	-4.03173E-008	0.00000E+000	-1.00000E-002	9.63292E-004	5	..........a	-327.66
	1116	223.4	-1.99176E-002	-4.05031E-008	0.00000E+000	-2.00000E-002	9.66092E-004	5	..........a	-327.66
	1117	223.6	-2.99308E-002	-4.11503E-008	0.00000E+000	-3.00000E-002	9.66992E-004	5	..........a	-327.66
	1118	223.8	-3.99208E-002	-4.16306E-008	0.00000E+000	-4.00000E-002	9.51192E-004	5	..........a	-327.66
	1119	224	-4.99242E-002	-4.21867E-008	0.00000E+000	-5.00000E-002	9.57992E-004	5	..........a	-327.66
	1120	224.2	-5.98952E-002	-4.28514E-008	0.00000E+000	-6.00000E-002	9.53992E-004	5	..........a	-327.66

File: 20240424_ZB_GM0016_HL03_E07_CV50K.DTA
EXPLAIN
TAG	CV
TITLE	LABEL	Cyclic Voltammetry	Test &Identifier
DATE	LABEL	4/24/2024	Date
TIME	LABEL	18:19:13	Time
NOTES	NOTES	1	&Notes...

PSTAT	PSTAT	REF600P-43058	Potentiostat
VINIT	POTEN	0.00000E+000	T	Initial &E (V)
VLIMIT1	POTEN	-6.00000E-001	F	Scan Limit &1 (V)
VLIMIT2	POTEN	8.00000E-001	F	Scan Limit &2 (V)
VFINAL	POTEN	0.00000E+000	T	Final &E (V)
SCANRATE	QUANT	4.99999E+004	&Scan Rate (mV/s)
STEPSIZE	QUANT	1.00000E+001	St&ep Size (mV)
CYCLES	IQUANT	10	C&ycles (#)
IMODE	SELECTOR	0	I/E Range &Mode
IRANGE	QUANT	1.00000E-005	&Max Current (mA)
AREA	QUANT	1.00000E+000	Electrode &Area (cm^2)
ELECTRODETYPE	SELECTOR	0	Electrode Type
STRIPPING	TOGGLE	F	Used for Stripping
POLARITY	TOGGLE	F	Signal Polarity
CONDIT	TWOPARAM	F	1.50000E+001	0.00000E+000	Conditionin&g	Time(s)	E(V)
DELAY	TWOPARAM	T	1.00000E+001	0.00000E+000	Init. De&lay	Time(s)	Stab.(mV/s)
EQDELAY	QUANT	1.00000E+001	Equil. &Time (s)
IRCOMP	SELECTOR	0	IRCom&p
PFCOR	QUANT	5.00000E+001	PF Corr. (ohm)
SAMPLINGMODE	SELECTOR	1	Sampling &Mode
OCVCURVE	TABLE	39
	Pt	T	Vf	Vm	Ach	Over	Temp
	#	s	V vs. Ref.	V	V	bits	deg C
	0	0.258333	-2.69351E-002	-2.69351E-002	2.01992E-004	..........a	-327.66
	1	0.516667	-2.69386E-002	-2.71176E-002	1.99792E-004	..........a	-327.66
	2	0.775	-2.69602E-002	-2.73000E-002	2.01592E-004	..........a	-327.66
	3	1.03333	-2.70221E-002	-2.74877E-002	2.02592E-004	..........a	-327.66
	4	1.29167	-2.71352E-002	-2.76741E-002	2.02926E-004	..........a	-327.66
	5	1.55	-2.72899E-002	-2.78538E-002	2.05992E-004	..........a	-327.66
	6	1.80833	-2.74675E-002	-2.80313E-002	2.09792E-004	..........a	-327.66
	7	2.06667	-2.76523E-002	-2.82224E-002	2.00726E-004	..........a	-327.66
	8	2.325	-2.78375E-002	-2.84053E-002	2.00792E-004	..........a	-327.66
	9	2.58333	-2.80218E-002	-2.85839E-002	2.13992E-004	..........a	-327.66
	10	2.84167	-2.82055E-002	-2.87635E-002	2.02526E-004	..........a	-327.66
	11	3.1	-2.83883E-002	-2.89462E-002	2.03326E-004	..........a	-327.66
	12	3.35833	-2.85698E-002	-2.91236E-002	2.01326E-004	..........a	-327.66
	13	3.61667	-2.87501E-002	-2.92863E-002	2.07392E-004	..........a	-327.66
	14	3.875	-2.89285E-002	-2.94682E-002	2.15659E-004	..........a	-327.66
	15	4.13333	-2.91044E-002	-2.96352E-002	1.97392E-004	..........a	-327.66
	16	4.39167	-2.92783E-002	-2.98096E-002	2.00392E-004	..........a	-327.66
	17	4.65	-2.94511E-002	-2.99790E-002	1.98459E-004	..........a	-327.66
	18	4.90833	-2.96232E-002	-3.01464E-002	2.00326E-004	..........a	-327.66
	19	5.16667	-2.97944E-002	-3.03143E-002	2.02659E-004	..........a	-327.66
	20	5.425	-2.99643E-002	-3.04791E-002	1.98792E-004	..........a	-327.66
	21	5.68333	-3.01328E-002	-3.06451E-002	2.09792E-004	..........a	-327.66
	22	5.94167	-3.03002E-002	-3.08136E-002	2.12659E-004	..........a	-327.66
	23	6.2	-3.04668E-002	-3.09781E-002	2.08192E-004	..........a	-327.66
	24	6.45833	-3.06330E-002	-3.11399E-002	2.15859E-004	..........a	-327.66
	25	6.71667	-3.07988E-002	-3.13017E-002	2.17126E-004	..........a	-327.66
	26	6.975	-3.09634E-002	-3.14609E-002	2.16326E-004	..........a	-327.66
	27	7.23333	-3.11265E-002	-3.16238E-002	2.15126E-004	..........a	-327.66
	28	7.49167	-3.12883E-002	-3.17797E-002	2.09459E-004	..........a	-327.66
	29	7.75	-3.14493E-002	-3.19509E-002	2.00859E-004	..........a	-327.66
	30	8.00833	-3.16103E-002	-3.21088E-002	2.11392E-004	..........a	-327.66
	31	8.26667	-3.17719E-002	-3.22608E-002	2.06526E-004	..........a	-327.66
	32	8.525	-3.19331E-002	-3.24183E-002	2.15392E-004	..........a	-327.66
	33	8.78333	-3.20924E-002	-3.25711E-002	2.08392E-004	..........a	-327.66
	34	9.04167	-3.22495E-002	-3.27250E-002	2.01392E-004	..........a	-327.66
	35	9.3	-3.24048E-002	-3.28736E-002	1.92726E-004	..........a	-327.66
	36	9.5583	-3.25586E-002	-3.30210E-002	1.94459E-004	..........a	-327.66
	37	9.8167	-3.27104E-002	-3.31589E-002	2.01459E-004	..........a	-327.66
	38	10.075	-3.28595E-002	-3.33033E-002	2.07859E-004	..........a	-327.66
EOC	QUANT	-0.0328595	Open Circuit (V)
PSTATMODEL	IQUANT	7	Pstat Model
PSTATSECTION	LABEL	REF600P-43058	Pstat Section
PSTATSERIALNO	LABEL	43058	Pstat Serial Number
CTRLMODE	IQUANT	1	Control Mode
ELECTROMETER	IQUANT	0	RE=0 or CS=1
IESTAB	IQUANT	2	I/E Stability
CASPEED	IQUANT	4	Control Amp Speed
CONVENTION	IQUANT	1	Current Convention
ICHRANGE	IQUANT	2	Ich Range
ICHRANGEMODE	TOGGLE	F	Ich Auto Range
ICHOFFSETENABLE	TOGGLE	F	Ich Offset Enable
ICHOFFSET	QUANT	0	Ich Offset (V)
ICHFILTER	IQUANT	1	Ich Filter
VCHRANGE	IQUANT	2	Vch Range
VCHRANGEMODE	TOGGLE	F	Vch Auto Range
VCHOFFSETENABLE	TOGGLE	F	Vch Offset Enable
VCHOFFSET	QUANT	0	Vch Offset (V)
VCHFILTER	IQUANT	1	Vch Filter
ACHRANGE	IQUANT	2	Ach Range
ACHOFFSETENABLE	TOGGLE	F	Ach Offset Enable
ACHOFFSET	QUANT	0	Ach Offset (V)
ACHFILTER	IQUANT	1	Ach Filter
IERANGELOWERLIMIT	IQUANT	1	I/E Range Lower Limit
IERANGEMODE	TOGGLE	T	I/E AutoRange
IERANGE	IQUANT	4	I/E Range
POSFEEDENABLE	TOGGLE	F	Positive Feedback IR Comp
POSFEEDRESISTANCE	QUANT	0	Positive Feedback Resistance (ohm)
ACHSELECT	IQUANT	4	Ach Select
SENSECABLEID	IQUANT	7	Sense Cable ID
PWRCABLEID	IQUANT	7	Power Cable ID
DCCALDATE	LABEL	3/22/2024	DC Calibration Date
ACCALDATE	LABEL	3/22/2024	AC Calibration Date
THERMOSELECT	IQUANT	1	Thermo Select
FRAMEWORKVERSION	LABEL	7.8.4	Framework Version
INSTRUMENTVERSION	LABEL	4.42	Instrument Version
CURVE1	TABLE
	Pt	T	Vf	Im	Vu	Sig	Ach	IERange	Over	Temp
	#	s	V vs. Ref.	A	V	V	V	#	bits	deg C
	0	0.0002	-3.27529E-002	2.35001E-007	0.00000E+000	-3.28500E-002	8.15923E-005	8	..........a	-327.66
	2	0.0006	-5.27529E-002	-1.48506E-006	0.00000E+000	-5.28500E-002	8.15923E-005	8	..........a	-327.66
	4	0.001	-7.28529E-002	-2.59511E-006	0.00000E+000	-7.28500E-002	8.15923E-005	8	..........a	-327.66
	6	0.0014	-9.27529E-002	-3.31514E-006	0.00000E+000	-9.28500E-002	8.15923E-005	8	..........a	-327.66
	8	0.0018	-1.12853E-001	-3.96516E-006	0.00000E+000	-1.12850E-001	8.15923E-005	8	..........a	-327.66
	10	0.0022	-1.32653E-001	-4.43518E-006	0.00000E+000	-1.32850E-001	8.15923E-005	8	..........a	-327.66
	12	0.0026	-1.52853E-001	-4.80519E-006	0.00000E+000	-1.52850E-001	8.15923E-005	8	..........a	-327.66
	14	0.003	-1.72853E-001	-5.18521E-006	0.00000E+000	-1.72850E-001	8.15923E-005	8	..........a	-327.66
	16	0.0034	-1.92653E-001	-5.49522E-006	0.00000E+000	-1.92850E-001	8.15923E-005	8	..........a	-327.66
	18	0.0038	-2.12753E-001	-5.73523E-006	0.00000E+000	-2.12850E-001	8.15923E-005	8	..........a	-327.66
	20	0.0042	-2.32653E-001	-5.99524E-006	0.00000E+000	-2.32850E-001	8.15923E-005	8	..........a	-327.66
	22	0.0046	-2.52853E-001	-6.20525E-006	0.00000E+000	-2.52850E-001	8.15923E-005	8	..........a	-327.66
	24	0.005	-2.72753E-001	-6.43525E-006	0.00000E+000	-2.72850E-001	8.15923E-005	8	..........a	-327.66
	26	0.0054	-2.92653E-001	-6.68526E-006	0.00000E+000	-2.92850E-001	8.15923E-005	8	..........a	-327.66
	28	0.0058	-3.12853E-001	-6.88527E-006	0.00000E+000	-3.12850E-001	-3.18408E-004	8	..........a	-327.66
	30	0.0062	-3.32853E-001	-7.14528E-006	0.00000E+000	-3.32850E-001	8.15923E-005	8	..........a	-327.66
	32	0.0066	-3.52753E-001	-7.41529E-006	0.00000E+000	-3.52850E-001	8.15923E-005	8	..........a	-327.66
	34	0.007	-3.72853E-001	-7.69530E-006	0.00000E+000	-3.72850E-001	8.15923E-005	8	..........a	-327.66
	36	0.0074	-3.92753E-001	-7.97531E-006	0.00000E+000	-3.92850E-001	8.15923E-005	8	..........a	-327.66
[...]
	2765	0.5532	3.19947E-001	-9.40537E-006	0.00000E+000	3.20000E-001	8.15923E-005	8	..........a	-327.66
	2766	0.5534	3.10047E-001	-9.68538E-006	0.00000E+000	3.10000E-001	-3.18408E-004	8	..........a	-327.66
	2767	0.5536	2.99947E-001	-9.95539E-006	0.00000E+000	3.00000E-001	-3.18408E-004	8	..........a	-327.66
	2768	0.5538	2.89947E-001	-1.01754E-005	0.00000E+000	2.90000E-001	8.15923E-005	8	..........a	-327.66
	2769	0.554	2.79947E-001	-1.03854E-005	0.00000E+000	2.80000E-001	8.15923E-005	8	..........a	-327.66
	2770	0.5542	2.70047E-001	-1.06554E-005	0.00000E+000	2.70000E-001	8.15923E-005	8	..........a	-327.66
	2771	0.5544	2.59947E-001	-1.09354E-005	0.00000E+000	2.60000E-001	8.15923E-005	8	..........a	-327.66
	2772	0.5546	2.49947E-001	-1.11254E-005	0.00000E+000	2.50000E-001	8.15923E-005	8	..........a	-327.66
	2773	0.5548	2.40047E-001	-1.13254E-005	0.00000E+000	2.40000E-001	-3.18408E-004	8	..........a	-327.66
	2774	0.555	2.29947E-001	-1.15354E-005	0.00000E+000	2.30000E-001	8.15923E-005	8	..........a	-327.66
	2775	0.5552	2.20247E-001	-1.17755E-005	0.00000E+000	2.20000E-001	8.15923E-005	8	..........a	-327.66
	2776	0.5554	2.10047E-001	-1.19555E-005	0.00000E+000	2.10000E-001	8.15923E-005	8	..........a	-327.66
	2777	0.5556	1.99947E-001	-1.21555E-005	0.00000E+000	2.00000E-001	-3.18408E-004	8	..........a	-327.66
	2778	0.5558	1.90047E-001	-1.23155E-005	0.00000E+000	1.90000E-001	8.15923E-005	8	..........a	-327.66
	2779	0.556	1.80247E-001	-1.25055E-005	0.00000E+000	1.80000E-001	8.15923E-005	8	..........a	-327.66
	2780	0.5562	1.69947E-001	-1.26655E-005	0.00000E+000	1.70000E-001	8.15923E-005	8	..........a	-327.66
	2781	0.5564	1.59947E-001	-1.28255E-005	0.00000E+000	1.60000E-001	8.15923E-005	8	..........a	-327.66
	2782	0.5566	1.50147E-001	-1.29755E-005	0.00000E+000	1.50000E-001	8.15923E-005	8	..........a	-327.66
	2783	0.5568	1.40047E-001	-1.31955E-005	0.00000E+000	1.40000E-001	8.15923E-005	8	..........a	-327.66
	2784	0.557	1.30047E-001	-1.32855E-005	0.00000E+000	1.30000E-001	8.15923E-005	8	..........a	-327.66
	2785	0.5572	1.20047E-001	-1.34355E-005	0.00000E+000	1.20000E-001	8.15923E-005	8	..........a	-327.66
	2786	0.5574	1.10047E-001	-1.35955E-005	0.00000E+000	1.10000E-001	8.15923E-005	8	..........a	-327.66
	2787	0.5576	1.00147E-001	-1.37255E-005	0.00000E+000	1.00000E-001	8.15923E-005	8	..........a	-327.66
	2788	0.5578	9.00471E-002	-1.38455E-005	0.00000E+000	9.00000E-002	8.15923E-005	8	..........a	-327.66
	2789	0.558	8.00471E-002	-1.39755E-005	0.00000E+000	8.00000E-002	8.15923E-005	8	..........a	-327.66
	2790	0.5582	7.00471E-002	-1.40955E-005	0.00000E+000	7.00000E-002	8.15923E-005	8	..........a	-327.66
	2791	0.5584	6.01471E-002	-1.42456E-005	0.00000E+000	6.00000E-002	8.15923E-005	8	..........a	-327.66
	2792	0.5586	5.00471E-002	-1.44056E-005	0.00000E+000	5.00000E-002	8.15923E-005	8	..........a	-327.66
	2793	0.5588	4.00471E-002	-1.45056E-005	0.00000E+000	4.00000E-002	8.15923E-005	8	..........a	-327.66
	2794	0.559	2.99471E-002	-1.47056E-005	0.00000E+000	3.00000E-002	8.15923E-005	8	..........a	-327.66
	2795	0.5592	2.01471E-002	-1.48556E-005	0.00000E+000	2.00000E-002	8.15923E-005	8	..........a	-327.66
	2796	0.5594	1.00471E-002	-1.50456E-005	0.00000E+000	1.00000E-002	8.15923E-005	8	..........a	-327.66
	2797	0.5596	4.71142E-005	-1.53356E-005	0.00000E+000	7.45058E-009	8.15923E-005	8	..........a	-327.66
	2798	0.5598	-9.95289E-003	-1.55256E-005	0.00000E+000	-1.00000E-002	8.15923E-005	8	..........a	-327.66
	2799	0.56	-2.01529E-002	-1.58556E-005	0.00000E+000	-2.00000E-002	8.15923E-005	8	..........a	-327.66
	2800	0.5602	-2.99529E-002	-1.61856E-005	0.00000E+000	-3.00000E-002	8.15923E-005	8	..........a	-327.66