Folder: GamryParser/data/raw/batch_data (part 13)

File: 20240424_ZI_GM0016_HL03_E09_CV50.DTA
EXPLAIN
TAG	CV
TITLE	LABEL	Cyclic Voltammetry	Test &Identifier
DATE	LABEL	4/24/2024	Date
TIME	LABEL	18:41:37	Time
NOTES	NOTES	1	&Notes...

PSTAT	PSTAT	REF600P-43058	Potentiostat
VINIT	POTEN	0.00000E+000	T	Initial &E (V)
VLIMIT1	POTEN	-6.00000E-001	F	Scan Limit &1 (V)
VLIMIT2	POTEN	8.00000E-001	F	Scan Limit &2 (V)
VFINAL	POTEN	0.00000E+000	T	Final &E (V)
SCANRATE	QUANT	4.99999E+001	&Scan Rate (mV/s)
STEPSIZE	QUANT	1.00000E+001	St&ep Size (mV)
CYCLES	IQUANT	4	C&ycles (#)
IMODE	SELECTOR	0	I/E Range &Mode
IRANGE	QUANT	1.00000E-005	&Max Current (mA)
AREA	QUANT	1.00000E+000	Electrode &Area (cm^2)
ELECTRODETYPE	SELECTOR	0	Electrode Type
STRIPPING	TOGGLE	F	Used for Stripping
POLARITY	TOGGLE	F	Signal Polarity
CONDIT	TWOPARAM	F	1.50000E+001	0.00000E+000	Conditionin&g	Time(s)	E(V)
DELAY	TWOPARAM	T	1.00000E+001	0.00000E+000	Init. De&lay	Time(s)	Stab.(mV/s)
EQDELAY	QUANT	1.00000E+001	Equil. &Time (s)
IRCOMP	SELECTOR	0	IRCom&p
PFCOR	QUANT	5.00000E+001	PF Corr. (ohm)
SAMPLINGMODE	SELECTOR	1	Sampling &Mode
OCVCURVE	TABLE	39
	Pt	T	Vf	Vm	Ach	Over	Temp
	#	s	V vs. Ref.	V	V	bits	deg C
	0	0.258333	-4.41129E-002	-4.41129E-002	2.47326E-004	..........a	-327.66
	1	0.516667	-4.41154E-002	-4.42474E-002	2.44259E-004	..........a	-327.66
	2	0.775	-4.41310E-002	-4.43655E-002	2.51059E-004	..........a	-327.66
	3	1.03333	-4.41749E-002	-4.44963E-002	2.52859E-004	..........a	-327.66
	4	1.29167	-4.42536E-002	-4.46177E-002	2.49592E-004	..........a	-327.66
	5	1.55	-4.43598E-002	-4.47440E-002	2.44059E-004	..........a	-327.66
	6	1.80833	-4.44806E-002	-4.48653E-002	2.46192E-004	..........a	-327.66
	7	2.06667	-4.46058E-002	-4.49767E-002	2.42859E-004	..........a	-327.66
	8	2.325	-4.47301E-002	-4.50972E-002	2.42192E-004	..........a	-327.66
	9	2.58333	-4.48514E-002	-4.52163E-002	2.43526E-004	..........a	-327.66
	10	2.84167	-4.49704E-002	-4.53349E-002	2.32392E-004	..........a	-327.66
	11	3.1	-4.50887E-002	-4.54521E-002	2.48659E-004	..........a	-327.66
	12	3.35833	-4.52067E-002	-4.55630E-002	2.43659E-004	..........a	-327.66
	13	3.61667	-4.53242E-002	-4.56817E-002	2.46592E-004	..........a	-327.66
	14	3.875	-4.54405E-002	-4.57862E-002	2.42526E-004	..........a	-327.66
	15	4.13333	-4.55554E-002	-4.59081E-002	2.34059E-004	..........a	-327.66
	16	4.39167	-4.56691E-002	-4.60140E-002	2.49459E-004	..........a	-327.66
	17	4.65	-4.57820E-002	-4.61195E-002	2.48992E-004	..........a	-327.66
	18	4.90833	-4.58940E-002	-4.62375E-002	2.34059E-004	..........a	-327.66
	19	5.16667	-4.60048E-002	-4.63419E-002	2.57326E-004	..........a	-327.66
	20	5.425	-4.61148E-002	-4.64416E-002	2.43392E-004	..........a	-327.66
	21	5.68333	-4.62239E-002	-4.65615E-002	2.37859E-004	..........a	-327.66
	22	5.94167	-4.63320E-002	-4.66611E-002	2.57926E-004	..........a	-327.66
	23	6.2	-4.64395E-002	-4.67609E-002	2.36926E-004	..........a	-327.66
	24	6.45833	-4.65465E-002	-4.68797E-002	2.37926E-004	..........a	-327.66
	25	6.71667	-4.66527E-002	-4.69764E-002	2.52592E-004	..........a	-327.66
	26	6.975	-4.67586E-002	-4.70695E-002	2.47659E-004	..........a	-327.66
	27	7.23333	-4.68633E-002	-4.71808E-002	2.51192E-004	..........a	-327.66
	28	7.49167	-4.69664E-002	-4.72915E-002	2.44259E-004	..........a	-327.66
	29	7.75	-4.70692E-002	-4.73816E-002	2.61459E-004	..........a	-327.66
	30	8.00833	-4.71726E-002	-4.74825E-002	2.44459E-004	..........a	-327.66
	31	8.26667	-4.72751E-002	-4.75857E-002	2.35392E-004	..........a	-327.66
	32	8.525	-4.73762E-002	-4.76851E-002	2.49926E-004	..........a	-327.66
	33	8.78333	-4.74765E-002	-4.77799E-002	2.48992E-004	..........a	-327.66
	34	9.04167	-4.75762E-002	-4.78743E-002	2.50526E-004	..........a	-327.66
	35	9.3	-4.76748E-002	-4.79771E-002	2.39059E-004	..........a	-327.66
	36	9.5583	-4.77725E-002	-4.80747E-002	2.52659E-004	..........a	-327.66
	37	9.8167	-4.78701E-002	-4.81680E-002	2.44726E-004	..........a	-327.66
	38	10.075	-4.79677E-002	-4.82633E-002	2.51526E-004	..........a	-327.66
EOC	QUANT	-0.0479677	Open Circuit (V)
PSTATMODEL	IQUANT	7	Pstat Model
PSTATSECTION	LABEL	REF600P-43058	Pstat Section
PSTATSERIALNO	LABEL	43058	Pstat Serial Number
CTRLMODE	IQUANT	1	Control Mode
ELECTROMETER	IQUANT	0	RE=0 or CS=1
IESTAB	IQUANT	2	I/E Stability
CASPEED	IQUANT	4	Control Amp Speed
CONVENTION	IQUANT	1	Current Convention
ICHRANGE	IQUANT	2	Ich Range
ICHRANGEMODE	TOGGLE	F	Ich Auto Range
ICHOFFSETENABLE	TOGGLE	F	Ich Offset Enable
ICHOFFSET	QUANT	0	Ich Offset (V)
ICHFILTER	IQUANT	2	Ich Filter
VCHRANGE	IQUANT	2	Vch Range
VCHRANGEMODE	TOGGLE	F	Vch Auto Range
VCHOFFSETENABLE	TOGGLE	F	Vch Offset Enable
VCHOFFSET	QUANT	0	Vch Offset (V)
VCHFILTER	IQUANT	2	Vch Filter
ACHRANGE	IQUANT	2	Ach Range
ACHOFFSETENABLE	TOGGLE	F	Ach Offset Enable
ACHOFFSET	QUANT	0	Ach Offset (V)
ACHFILTER	IQUANT	1	Ach Filter
IERANGELOWERLIMIT	IQUANT	1	I/E Range Lower Limit
IERANGEMODE	TOGGLE	T	I/E AutoRange
IERANGE	IQUANT	4	I/E Range
POSFEEDENABLE	TOGGLE	F	Positive Feedback IR Comp
POSFEEDRESISTANCE	QUANT	0	Positive Feedback Resistance (ohm)
ACHSELECT	IQUANT	4	Ach Select
SENSECABLEID	IQUANT	7	Sense Cable ID
PWRCABLEID	IQUANT	7	Power Cable ID
DCCALDATE	LABEL	3/22/2024	DC Calibration Date
ACCALDATE	LABEL	3/22/2024	AC Calibration Date
THERMOSELECT	IQUANT	1	Thermo Select
FRAMEWORKVERSION	LABEL	7.8.4	Framework Version
INSTRUMENTVERSION	LABEL	4.42	Instrument Version
CURVE1	TABLE
	Pt	T	Vf	Im	Vu	Sig	Ach	IERange	Over	Temp
	#	s	V vs. Ref.	A	V	V	V	#	bits	deg C
	0	0.2	-4.79223E-002	7.06833E-010	0.00000E+000	-4.79500E-002	9.96292E-004	5	..........a	-327.66
	2	0.6	-6.78352E-002	-4.22900E-009	0.00000E+000	-6.79500E-002	9.85492E-004	5	..........a	-327.66
	4	1	-8.79357E-002	-7.51381E-009	0.00000E+000	-8.79500E-002	9.94392E-004	5	..........a	-327.66
	6	1.4	-1.07839E-001	-1.03710E-008	0.00000E+000	-1.07950E-001	9.70792E-004	5	..........a	-327.66
	8	1.8	-1.27948E-001	-1.30400E-008	0.00000E+000	-1.27950E-001	1.00999E-003	5	..........a	-327.66
	10	2.2	-1.47862E-001	-1.55366E-008	0.00000E+000	-1.47950E-001	9.93192E-004	5	..........a	-327.66
	12	2.6	-1.67885E-001	-1.79569E-008	0.00000E+000	-1.67950E-001	9.95592E-004	5	..........a	-327.66
	14	3	-1.87823E-001	-2.03023E-008	0.00000E+000	-1.87950E-001	9.94592E-004	5	..........a	-327.66
	16	3.4	-2.07903E-001	-2.26092E-008	0.00000E+000	-2.07950E-001	9.97592E-004	5	..........a	-327.66
	18	3.8	-2.27799E-001	-2.49018E-008	0.00000E+000	-2.27950E-001	9.94992E-004	5	..........a	-327.66
	20	4.2	-2.47852E-001	-2.72096E-008	0.00000E+000	-2.47950E-001	1.00809E-003	5	..........a	-327.66
	22	4.6	-2.67763E-001	-2.96132E-008	0.00000E+000	-2.67950E-001	9.92092E-004	5	..........a	-327.66
	24	5	-2.87867E-001	-3.20981E-008	0.00000E+000	-2.87950E-001	9.99692E-004	5	..........a	-327.66
	26	5.4	-3.07774E-001	-3.47291E-008	0.00000E+000	-3.07950E-001	1.00009E-003	5	..........a	-327.66
	28	5.8	-3.27880E-001	-3.75646E-008	0.00000E+000	-3.27950E-001	1.01109E-003	5	..........a	-327.66
	30	6.2	-3.47821E-001	-4.06133E-008	0.00000E+000	-3.47950E-001	9.94592E-004	5	..........a	-327.66
	32	6.6	-3.67837E-001	-4.38665E-008	0.00000E+000	-3.67950E-001	1.00199E-003	5	..........a	-327.66
	34	7	-3.87749E-001	-4.72121E-008	0.00000E+000	-3.87950E-001	9.99592E-004	5	..........a	-327.66
	36	7.4	-4.07829E-001	-5.06864E-008	0.00000E+000	-4.07950E-001	1.01389E-003	5	..........a	-327.66
	38	7.8	-4.27779E-001	-5.42692E-008	0.00000E+000	-4.27950E-001	9.83992E-004	5	..........a	-327.66
[...]
	1085	217.2	3.00097E-001	-2.77987E-008	0.00000E+000	3.00000E-001	9.90792E-004	5	..........a	-327.66
	1086	217.4	2.90061E-001	-3.05883E-008	0.00000E+000	2.90000E-001	9.91892E-004	5	..........a	-327.66
	1087	217.6	2.79992E-001	-3.35247E-008	0.00000E+000	2.80000E-001	1.02579E-003	5	..........a	-327.66
	1088	217.8	2.70109E-001	-3.66319E-008	0.00000E+000	2.70000E-001	9.87392E-004	5	..........a	-327.66
	1089	218	2.60073E-001	-3.98658E-008	0.00000E+000	2.60000E-001	9.94192E-004	5	..........a	-327.66
	1090	218.2	2.50022E-001	-4.32705E-008	0.00000E+000	2.50000E-001	1.00019E-003	5	..........a	-327.66
	1091	218.4	2.40078E-001	-4.66924E-008	0.00000E+000	2.40000E-001	1.01379E-003	5	..........a	-327.66
	1092	218.6	2.30046E-001	-5.01364E-008	0.00000E+000	2.30000E-001	1.01279E-003	5	..........a	-327.66
	1093	218.8	2.20024E-001	-5.35201E-008	0.00000E+000	2.20000E-001	9.82092E-004	5	..........a	-327.66
	1094	219	2.10045E-001	-5.66920E-008	0.00000E+000	2.10000E-001	1.01339E-003	5	..........a	-327.66
	1095	219.2	2.00073E-001	-5.95228E-008	0.00000E+000	2.00000E-001	1.01679E-003	5	..........a	-327.66
	1096	219.4	1.90132E-001	-6.18413E-008	0.00000E+000	1.90000E-001	9.99092E-004	5	..........a	-327.66
	1097	219.6	1.80121E-001	-6.34917E-008	0.00000E+000	1.80000E-001	9.88692E-004	5	..........a	-327.66
	1098	219.8	1.70112E-001	-6.43792E-008	0.00000E+000	1.70000E-001	1.01019E-003	5	..........a	-327.66
	1099	220	1.60082E-001	-6.44209E-008	0.00000E+000	1.60000E-001	1.00499E-003	5	..........a	-327.66
	1100	220.2	1.50097E-001	-6.36764E-008	0.00000E+000	1.50000E-001	1.00409E-003	5	..........a	-327.66
	1101	220.4	1.40144E-001	-6.21843E-008	0.00000E+000	1.40000E-001	1.00019E-003	5	..........a	-327.66
	1102	220.6	1.30099E-001	-6.00515E-008	0.00000E+000	1.30000E-001	1.00039E-003	5	..........a	-327.66
	1103	220.8	1.20063E-001	-5.74778E-008	0.00000E+000	1.20000E-001	1.02319E-003	5	..........a	-327.66
	1104	221	1.10124E-001	-5.46313E-008	0.00000E+000	1.10000E-001	1.00619E-003	5	..........a	-327.66
	1105	221.2	1.00144E-001	-5.18738E-008	0.00000E+000	1.00000E-001	9.97492E-004	5	..........a	-327.66
	1106	221.4	9.01078E-002	-4.91887E-008	0.00000E+000	9.00000E-002	1.01069E-003	5	..........a	-327.66
	1107	221.6	8.00762E-002	-4.68778E-008	0.00000E+000	8.00000E-002	1.03129E-003	5	..........a	-327.66
	1108	221.8	7.00984E-002	-4.49434E-008	0.00000E+000	7.00000E-002	1.01079E-003	5	..........a	-327.66
	1109	222	6.01307E-002	-4.35075E-008	0.00000E+000	6.00000E-002	9.77492E-004	5	..........a	-327.66
	1110	222.2	5.00669E-002	-4.25067E-008	0.00000E+000	5.00000E-002	1.00619E-003	5	..........a	-327.66
	1111	222.4	4.01369E-002	-4.19337E-008	0.00000E+000	4.00000E-002	1.00909E-003	5	..........a	-327.66
	1112	222.6	3.00756E-002	-4.15947E-008	0.00000E+000	3.00000E-002	9.85592E-004	5	..........a	-327.66
	1113	222.8	2.01644E-002	-4.16819E-008	0.00000E+000	2.00000E-002	1.00359E-003	5	..........a	-327.66
	1114	223	1.01185E-002	-4.20511E-008	0.00000E+000	1.00000E-002	1.02109E-003	5	..........a	-327.66
	1115	223.2	5.25917E-005	-4.23305E-008	0.00000E+000	7.45058E-009	1.00879E-003	5	..........a	-327.66
	1116	223.4	-9.87721E-003	-4.16376E-008	0.00000E+000	-1.00000E-002	9.93592E-004	5	..........a	-327.66
	1117	223.6	-1.98988E-002	-4.19806E-008	0.00000E+000	-2.00000E-002	9.92592E-004	5	..........a	-327.66
	1118	223.8	-2.99252E-002	-4.23797E-008	0.00000E+000	-3.00000E-002	1.00099E-003	5	..........a	-327.66
	1119	224	-3.99040E-002	-4.29237E-008	0.00000E+000	-4.00000E-002	9.97792E-004	5	..........a	-327.66
	1120	224.2	-4.99042E-002	-4.34774E-008	0.00000E+000	-5.00000E-002	1.02729E-003	5	..........a	-327.66

File: 20240424_ZJ_GM0016_HL03_E09_CV50K.DTA
EXPLAIN
TAG	CV
TITLE	LABEL	Cyclic Voltammetry	Test &Identifier
DATE	LABEL	4/24/2024	Date
TIME	LABEL	18:45:56	Time
NOTES	NOTES	1	&Notes...

PSTAT	PSTAT	REF600P-43058	Potentiostat
VINIT	POTEN	0.00000E+000	T	Initial &E (V)
VLIMIT1	POTEN	-6.00000E-001	F	Scan Limit &1 (V)
VLIMIT2	POTEN	8.00000E-001	F	Scan Limit &2 (V)
VFINAL	POTEN	0.00000E+000	T	Final &E (V)
SCANRATE	QUANT	4.99999E+004	&Scan Rate (mV/s)
STEPSIZE	QUANT	1.00000E+001	St&ep Size (mV)
CYCLES	IQUANT	10	C&ycles (#)
IMODE	SELECTOR	0	I/E Range &Mode
IRANGE	QUANT	1.00000E-005	&Max Current (mA)
AREA	QUANT	1.00000E+000	Electrode &Area (cm^2)
ELECTRODETYPE	SELECTOR	0	Electrode Type
STRIPPING	TOGGLE	F	Used for Stripping
POLARITY	TOGGLE	F	Signal Polarity
CONDIT	TWOPARAM	F	1.50000E+001	0.00000E+000	Conditionin&g	Time(s)	E(V)
DELAY	TWOPARAM	T	1.00000E+001	0.00000E+000	Init. De&lay	Time(s)	Stab.(mV/s)
EQDELAY	QUANT	1.00000E+001	Equil. &Time (s)
IRCOMP	SELECTOR	0	IRCom&p
PFCOR	QUANT	5.00000E+001	PF Corr. (ohm)
SAMPLINGMODE	SELECTOR	1	Sampling &Mode
OCVCURVE	TABLE	39
	Pt	T	Vf	Vm	Ach	Over	Temp
	#	s	V vs. Ref.	V	V	bits	deg C
	0	0.258333	6.72285E-002	6.72285E-002	2.41259E-004	..........a	-327.66
	1	0.516667	6.72214E-002	6.68598E-002	2.40992E-004	..........a	-327.66
	2	0.775	6.71776E-002	6.64795E-002	2.50859E-004	..........a	-327.66
	3	1.03333	6.70514E-002	6.61010E-002	2.35326E-004	..........a	-327.66
	4	1.29167	6.68203E-002	6.57201E-002	2.46859E-004	..........a	-327.66
	5	1.55	6.65033E-002	6.53193E-002	2.25326E-004	..........a	-327.66
	6	1.80833	6.61372E-002	6.49404E-002	2.46459E-004	..........a	-327.66
	7	2.06667	6.57508E-002	6.45438E-002	2.33659E-004	..........a	-327.66
	8	2.325	6.53588E-002	6.41450E-002	2.54592E-004	..........a	-327.66
	9	2.58333	6.49656E-002	6.37400E-002	2.43926E-004	..........a	-327.66
	10	2.84167	6.45706E-002	6.33392E-002	2.55726E-004	..........a	-327.66
	11	3.1	6.41726E-002	6.29328E-002	2.45659E-004	..........a	-327.66
	12	3.35833	6.37717E-002	6.25248E-002	2.48259E-004	..........a	-327.66
	13	3.61667	6.33683E-002	6.21118E-002	2.53792E-004	..........a	-327.66
	14	3.875	6.29624E-002	6.17026E-002	2.41459E-004	..........a	-327.66
	15	4.13333	6.25543E-002	6.12883E-002	2.52859E-004	..........a	-327.66
	16	4.39167	6.21444E-002	6.08791E-002	2.48592E-004	..........a	-327.66
	17	4.65	6.17333E-002	6.04663E-002	2.57926E-004	..........a	-327.66
	18	4.90833	6.13217E-002	6.00487E-002	2.53526E-004	..........a	-327.66
	19	5.16667	6.09095E-002	5.96389E-002	2.49726E-004	..........a	-327.66
	20	5.425	6.04966E-002	5.92254E-002	2.45459E-004	..........a	-327.66
	21	5.68333	6.00834E-002	5.88105E-002	2.50792E-004	..........a	-327.66
	22	5.94167	5.96701E-002	5.83977E-002	2.53392E-004	..........a	-327.66
	23	6.2	5.92568E-002	5.79848E-002	2.46926E-004	..........a	-327.66
	24	6.45833	5.88434E-002	5.75744E-002	2.47592E-004	..........a	-327.66
	25	6.71667	5.84304E-002	5.71611E-002	2.47526E-004	..........a	-327.66
	26	6.975	5.80178E-002	5.67503E-002	2.50792E-004	..........a	-327.66
	27	7.23333	5.76056E-002	5.63364E-002	2.52726E-004	..........a	-327.66
	28	7.49167	5.71935E-002	5.59238E-002	2.49392E-004	..........a	-327.66
	29	7.75	5.67812E-002	5.55103E-002	2.60259E-004	..........a	-327.66
	30	8.00833	5.63684E-002	5.50867E-002	2.37059E-004	..........a	-327.66
	31	8.26667	5.59547E-002	5.46909E-002	2.51592E-004	..........a	-327.66
	32	8.525	5.55411E-002	5.42789E-002	2.59192E-004	..........a	-327.66
	33	8.78333	5.51290E-002	5.38705E-002	2.41392E-004	..........a	-327.66
	34	9.04167	5.47190E-002	5.34575E-002	2.49526E-004	..........a	-327.66
	35	9.3	5.43100E-002	5.30545E-002	2.41126E-004	..........a	-327.66
	36	9.5583	5.39013E-002	5.26524E-002	2.46592E-004	..........a	-327.66
	37	9.8167	5.34936E-002	5.22435E-002	2.43926E-004	..........a	-327.66
	38	10.075	5.30871E-002	5.18404E-002	2.52192E-004	..........a	-327.66
EOC	QUANT	0.0530871	Open Circuit (V)
PSTATMODEL	IQUANT	7	Pstat Model
PSTATSECTION	LABEL	REF600P-43058	Pstat Section
PSTATSERIALNO	LABEL	43058	Pstat Serial Number
CTRLMODE	IQUANT	1	Control Mode
ELECTROMETER	IQUANT	0	RE=0 or CS=1
IESTAB	IQUANT	2	I/E Stability
CASPEED	IQUANT	4	Control Amp Speed
CONVENTION	IQUANT	1	Current Convention
ICHRANGE	IQUANT	2	Ich Range
ICHRANGEMODE	TOGGLE	F	Ich Auto Range
ICHOFFSETENABLE	TOGGLE	F	Ich Offset Enable
ICHOFFSET	QUANT	0	Ich Offset (V)
ICHFILTER	IQUANT	1	Ich Filter
VCHRANGE	IQUANT	2	Vch Range
VCHRANGEMODE	TOGGLE	F	Vch Auto Range
VCHOFFSETENABLE	TOGGLE	F	Vch Offset Enable
VCHOFFSET	QUANT	0	Vch Offset (V)
VCHFILTER	IQUANT	1	Vch Filter
ACHRANGE	IQUANT	2	Ach Range
ACHOFFSETENABLE	TOGGLE	F	Ach Offset Enable
ACHOFFSET	QUANT	0	Ach Offset (V)
ACHFILTER	IQUANT	1	Ach Filter
IERANGELOWERLIMIT	IQUANT	1	I/E Range Lower Limit
IERANGEMODE	TOGGLE	T	I/E AutoRange
IERANGE	IQUANT	4	I/E Range
POSFEEDENABLE	TOGGLE	F	Positive Feedback IR Comp
POSFEEDRESISTANCE	QUANT	0	Positive Feedback Resistance (ohm)
ACHSELECT	IQUANT	4	Ach Select
SENSECABLEID	IQUANT	7	Sense Cable ID
PWRCABLEID	IQUANT	7	Power Cable ID
DCCALDATE	LABEL	3/22/2024	DC Calibration Date
ACCALDATE	LABEL	3/22/2024	AC Calibration Date
THERMOSELECT	IQUANT	1	Thermo Select
FRAMEWORKVERSION	LABEL	7.8.4	Framework Version
INSTRUMENTVERSION	LABEL	4.42	Instrument Version
CURVE1	TABLE
	Pt	T	Vf	Im	Vu	Sig	Ach	IERange	Over	Temp
	#	s	V vs. Ref.	A	V	V	V	#	bits	deg C
	0	0.0002	5.30471E-002	2.05000E-007	0.00000E+000	5.31000E-002	8.15923E-005	8	..........a	-327.66
	3	0.0008	2.33471E-002	-2.32510E-006	0.00000E+000	2.31000E-002	8.15923E-005	8	..........a	-327.66
	6	0.0014	-6.75289E-003	-3.81515E-006	0.00000E+000	-6.90000E-003	8.15923E-005	8	..........a	-327.66
	9	0.002	-3.65529E-002	-4.81519E-006	0.00000E+000	-3.69000E-002	8.15923E-005	8	..........a	-327.66
	12	0.0026	-6.68529E-002	-5.54522E-006	0.00000E+000	-6.69000E-002	8.15923E-005	8	..........a	-327.66
	15	0.0032	-9.69529E-002	-6.13524E-006	0.00000E+000	-9.69000E-002	8.15923E-005	8	..........a	-327.66
	18	0.0038	-1.26853E-001	-6.64526E-006	0.00000E+000	-1.26900E-001	8.15923E-005	8	..........a	-327.66
	21	0.0044	-1.56953E-001	-7.01528E-006	0.00000E+000	-1.56900E-001	8.15923E-005	8	..........a	-327.66
	24	0.005	-1.86903E-001	-7.38529E-006	0.00000E+000	-1.86900E-001	8.15923E-005	8	..........a	-327.66
	27	0.0056	-2.16653E-001	-7.71530E-006	0.00000E+000	-2.16900E-001	8.15923E-005	8	..........a	-327.66
	30	0.0062	-2.46753E-001	-8.09532E-006	0.00000E+000	-2.46900E-001	8.15923E-005	8	..........a	-327.66
	33	0.0068	-2.76853E-001	-8.31533E-006	0.00000E+000	-2.76900E-001	8.15923E-005	8	..........a	-327.66
	36	0.0074	-3.06753E-001	-8.64534E-006	0.00000E+000	-3.06900E-001	8.15923E-005	8	..........a	-327.66
	39	0.008	-3.36653E-001	-9.04535E-006	0.00000E+000	-3.36900E-001	8.15923E-005	8	..........a	-327.66
	42	0.0086	-3.66753E-001	-9.41537E-006	0.00000E+000	-3.66900E-001	8.15923E-005	8	..........a	-327.66
	45	0.0092	-3.96853E-001	-9.80538E-006	0.00000E+000	-3.96900E-001	8.15923E-005	8	..........a	-327.66
	48	0.0098	-4.26753E-001	-1.02454E-005	0.00000E+000	-4.26900E-001	8.15923E-005	8	..........a	-327.66
	51	0.0104	-4.56753E-001	-1.06754E-005	0.00000E+000	-4.56900E-001	8.15923E-005	8	..........a	-327.66
	54	0.011	-4.86753E-001	-1.11654E-005	0.00000E+000	-4.86900E-001	8.15923E-005	8	..........a	-327.66
	57	0.0116	-5.16953E-001	-1.15955E-005	0.00000E+000	-5.16900E-001	8.15923E-005	8	..........a	-327.66
[...]
	2765	0.5532	4.00147E-001	-8.11532E-006	0.00000E+000	4.00000E-001	8.15923E-005	8	..........a	-327.66
	2766	0.5534	3.90047E-001	-8.24532E-006	0.00000E+000	3.90000E-001	8.15923E-005	8	..........a	-327.66
	2767	0.5536	3.80147E-001	-8.51533E-006	0.00000E+000	3.80000E-001	8.15923E-005	8	..........a	-327.66
	2768	0.5538	3.70047E-001	-8.64534E-006	0.00000E+000	3.70000E-001	8.15923E-005	8	..........a	-327.66
	2769	0.554	3.60047E-001	-8.88535E-006	0.00000E+000	3.60000E-001	8.15923E-005	8	..........a	-327.66
	2770	0.5542	3.49947E-001	-9.12536E-006	0.00000E+000	3.50000E-001	8.15923E-005	8	..........a	-327.66
	2771	0.5544	3.40047E-001	-9.41537E-006	0.00000E+000	3.40000E-001	8.15923E-005	8	..........a	-327.66
	2772	0.5546	3.30047E-001	-9.61538E-006	0.00000E+000	3.30000E-001	8.15923E-005	8	..........a	-327.66
	2773	0.5548	3.20147E-001	-9.84538E-006	0.00000E+000	3.20000E-001	8.15923E-005	8	..........a	-327.66
	2774	0.555	3.10047E-001	-1.01254E-005	0.00000E+000	3.10000E-001	8.15923E-005	8	..........a	-327.66
	2775	0.5552	3.00247E-001	-1.03354E-005	0.00000E+000	3.00000E-001	8.15923E-005	8	..........a	-327.66
	2776	0.5554	2.90047E-001	-1.05954E-005	0.00000E+000	2.90000E-001	8.15923E-005	8	..........a	-327.66
	2777	0.5556	2.79947E-001	-1.08354E-005	0.00000E+000	2.80000E-001	8.15923E-005	8	..........a	-327.66
	2778	0.5558	2.70047E-001	-1.10654E-005	0.00000E+000	2.70000E-001	8.15923E-005	8	..........a	-327.66
	2779	0.556	2.60047E-001	-1.13554E-005	0.00000E+000	2.60000E-001	8.15923E-005	8	..........a	-327.66
	2780	0.5562	2.49947E-001	-1.15955E-005	0.00000E+000	2.50000E-001	8.15923E-005	8	..........a	-327.66
	2781	0.5564	2.40047E-001	-1.17555E-005	0.00000E+000	2.40000E-001	8.15923E-005	8	..........a	-327.66
	2782	0.5566	2.29947E-001	-1.20355E-005	0.00000E+000	2.30000E-001	8.15923E-005	8	..........a	-327.66
	2783	0.5568	2.19947E-001	-1.22255E-005	0.00000E+000	2.20000E-001	8.15923E-005	8	..........a	-327.66
	2784	0.557	2.10047E-001	-1.24255E-005	0.00000E+000	2.10000E-001	8.15923E-005	8	..........a	-327.66
	2785	0.5572	2.00047E-001	-1.26255E-005	0.00000E+000	2.00000E-001	8.15923E-005	8	..........a	-327.66
	2786	0.5574	1.89847E-001	-1.28155E-005	0.00000E+000	1.90000E-001	8.15923E-005	8	..........a	-327.66
	2787	0.5576	1.80247E-001	-1.29855E-005	0.00000E+000	1.80000E-001	8.15923E-005	8	..........a	-327.66
	2788	0.5578	1.70047E-001	-1.31955E-005	0.00000E+000	1.70000E-001	8.15923E-005	8	..........a	-327.66
	2789	0.558	1.60047E-001	-1.32755E-005	0.00000E+000	1.60000E-001	8.15923E-005	8	..........a	-327.66
	2790	0.5582	1.50047E-001	-1.34155E-005	0.00000E+000	1.50000E-001	-3.18408E-004	8	..........a	-327.66
	2791	0.5584	1.40047E-001	-1.35555E-005	0.00000E+000	1.40000E-001	8.15923E-005	8	..........a	-327.66
	2792	0.5586	1.29947E-001	-1.37355E-005	0.00000E+000	1.30000E-001	8.15923E-005	8	..........a	-327.66
	2793	0.5588	1.20147E-001	-1.38055E-005	0.00000E+000	1.20000E-001	8.15923E-005	8	..........a	-327.66
	2794	0.559	1.10047E-001	-1.38855E-005	0.00000E+000	1.10000E-001	8.15923E-005	8	..........a	-327.66
	2795	0.5592	1.00147E-001	-1.40555E-005	0.00000E+000	1.00000E-001	8.15923E-005	8	..........a	-327.66
	2796	0.5594	9.00471E-002	-1.41856E-005	0.00000E+000	9.00000E-002	8.15923E-005	8	..........a	-327.66
	2797	0.5596	7.98471E-002	-1.42856E-005	0.00000E+000	8.00000E-002	8.15923E-005	8	..........a	-327.66
	2798	0.5598	7.00971E-002	-1.43956E-005	0.00000E+000	7.00000E-002	8.15923E-005	8	..........a	-327.66
	2799	0.56	6.00471E-002	-1.45156E-005	0.00000E+000	6.00000E-002	8.15923E-005	8	..........a	-327.66
	2800	0.5602	4.98471E-002	-1.46556E-005	0.00000E+000	5.00000E-002	-1.18408E-004	8	..........a	-327.66