Folder: GamryParser/data/raw/batch_data (part 15)

File: 20240424_ZV_GM0016_HL03_E12_CV50K.DTA
EXPLAIN
TAG	CV
TITLE	LABEL	Cyclic Voltammetry	Test &Identifier
DATE	LABEL	4/24/2024	Date
TIME	LABEL	19:22:53	Time
NOTES	NOTES	1	&Notes...

PSTAT	PSTAT	REF600P-43058	Potentiostat
VINIT	POTEN	0.00000E+000	T	Initial &E (V)
VLIMIT1	POTEN	-6.00000E-001	F	Scan Limit &1 (V)
VLIMIT2	POTEN	8.00000E-001	F	Scan Limit &2 (V)
VFINAL	POTEN	0.00000E+000	T	Final &E (V)
SCANRATE	QUANT	4.99999E+004	&Scan Rate (mV/s)
STEPSIZE	QUANT	1.00000E+001	St&ep Size (mV)
CYCLES	IQUANT	10	C&ycles (#)
IMODE	SELECTOR	0	I/E Range &Mode
IRANGE	QUANT	1.00000E-005	&Max Current (mA)
AREA	QUANT	1.00000E+000	Electrode &Area (cm^2)
ELECTRODETYPE	SELECTOR	0	Electrode Type
STRIPPING	TOGGLE	F	Used for Stripping
POLARITY	TOGGLE	F	Signal Polarity
CONDIT	TWOPARAM	F	1.50000E+001	0.00000E+000	Conditionin&g	Time(s)	E(V)
DELAY	TWOPARAM	T	1.00000E+001	0.00000E+000	Init. De&lay	Time(s)	Stab.(mV/s)
EQDELAY	QUANT	1.00000E+001	Equil. &Time (s)
IRCOMP	SELECTOR	0	IRCom&p
PFCOR	QUANT	5.00000E+001	PF Corr. (ohm)
SAMPLINGMODE	SELECTOR	1	Sampling &Mode
OCVCURVE	TABLE	39
	Pt	T	Vf	Vm	Ach	Over	Temp
	#	s	V vs. Ref.	V	V	bits	deg C
	0	0.258333	2.61504E-002	2.61504E-002	2.39726E-004	..........a	-327.66
	1	0.516667	2.61437E-002	2.57994E-002	2.44259E-004	..........a	-327.66
	2	0.775	2.61023E-002	2.54505E-002	2.48259E-004	..........a	-327.66
	3	1.03333	2.59836E-002	2.51047E-002	2.46259E-004	..........a	-327.66
	4	1.29167	2.57684E-002	2.47672E-002	2.44459E-004	..........a	-327.66
	5	1.55	2.54766E-002	2.44141E-002	2.43126E-004	..........a	-327.66
	6	1.80833	2.51441E-002	2.40914E-002	2.37192E-004	..........a	-327.66
	7	2.06667	2.47987E-002	2.37468E-002	2.35459E-004	..........a	-327.66
	8	2.325	2.44538E-002	2.34093E-002	2.37659E-004	..........a	-327.66
	9	2.58333	2.41128E-002	2.30797E-002	2.50726E-004	..........a	-327.66
	10	2.84167	2.37749E-002	2.27537E-002	2.33792E-004	..........a	-327.66
	11	3.1	2.34399E-002	2.24215E-002	2.54926E-004	..........a	-327.66
	12	3.35833	2.31076E-002	2.20941E-002	2.27592E-004	..........a	-327.66
	13	3.61667	2.27774E-002	2.17655E-002	2.37726E-004	..........a	-327.66
	14	3.875	2.24482E-002	2.14397E-002	2.53459E-004	..........a	-327.66
	15	4.13333	2.21200E-002	2.11242E-002	2.40459E-004	..........a	-327.66
	16	4.39167	2.17937E-002	2.08112E-002	2.27392E-004	..........a	-327.66
	17	4.65	2.14706E-002	2.04974E-002	2.38592E-004	..........a	-327.66
	18	4.90833	2.11515E-002	2.01825E-002	2.27326E-004	..........a	-327.66
	19	5.16667	2.08355E-002	1.98712E-002	2.47792E-004	..........a	-327.66
	20	5.425	2.05213E-002	1.95591E-002	2.60326E-004	..........a	-327.66
	21	5.68333	2.02082E-002	1.92534E-002	2.38326E-004	..........a	-327.66
	22	5.94167	1.98963E-002	1.89463E-002	2.34792E-004	..........a	-327.66
	23	6.2	1.95861E-002	1.86417E-002	2.36326E-004	..........a	-327.66
	24	6.45833	1.92778E-002	1.83368E-002	2.51192E-004	..........a	-327.66
	25	6.71667	1.89711E-002	1.80360E-002	2.50792E-004	..........a	-327.66
	26	6.975	1.86660E-002	1.77351E-002	2.58659E-004	..........a	-327.66
	27	7.23333	1.83623E-002	1.74322E-002	2.45192E-004	..........a	-327.66
	28	7.49167	1.80598E-002	1.71367E-002	2.33392E-004	..........a	-327.66
	29	7.75	1.77586E-002	1.68426E-002	2.57859E-004	..........a	-327.66
	30	8.00833	1.74589E-002	1.65448E-002	2.51326E-004	..........a	-327.66
	31	8.26667	1.71611E-002	1.62519E-002	2.37659E-004	..........a	-327.66
	32	8.525	1.68649E-002	1.59676E-002	2.39459E-004	..........a	-327.66
	33	8.78333	1.65706E-002	1.56808E-002	2.46726E-004	..........a	-327.66
	34	9.04167	1.62791E-002	1.53956E-002	2.37926E-004	..........a	-327.66
	35	9.3	1.59902E-002	1.51073E-002	2.48326E-004	..........a	-327.66
	36	9.5583	1.57031E-002	1.48244E-002	2.41392E-004	..........a	-327.66
	37	9.8167	1.54170E-002	1.45447E-002	2.43726E-004	..........a	-327.66
	38	10.075	1.51321E-002	1.42662E-002	2.45059E-004	..........a	-327.66
EOC	QUANT	0.0151321	Open Circuit (V)
PSTATMODEL	IQUANT	7	Pstat Model
PSTATSECTION	LABEL	REF600P-43058	Pstat Section
PSTATSERIALNO	LABEL	43058	Pstat Serial Number
CTRLMODE	IQUANT	1	Control Mode
ELECTROMETER	IQUANT	0	RE=0 or CS=1
IESTAB	IQUANT	2	I/E Stability
CASPEED	IQUANT	4	Control Amp Speed
CONVENTION	IQUANT	1	Current Convention
ICHRANGE	IQUANT	2	Ich Range
ICHRANGEMODE	TOGGLE	F	Ich Auto Range
ICHOFFSETENABLE	TOGGLE	F	Ich Offset Enable
ICHOFFSET	QUANT	0	Ich Offset (V)
ICHFILTER	IQUANT	1	Ich Filter
VCHRANGE	IQUANT	2	Vch Range
VCHRANGEMODE	TOGGLE	F	Vch Auto Range
VCHOFFSETENABLE	TOGGLE	F	Vch Offset Enable
VCHOFFSET	QUANT	0	Vch Offset (V)
VCHFILTER	IQUANT	1	Vch Filter
ACHRANGE	IQUANT	2	Ach Range
ACHOFFSETENABLE	TOGGLE	F	Ach Offset Enable
ACHOFFSET	QUANT	0	Ach Offset (V)
ACHFILTER	IQUANT	1	Ach Filter
IERANGELOWERLIMIT	IQUANT	1	I/E Range Lower Limit
IERANGEMODE	TOGGLE	T	I/E AutoRange
IERANGE	IQUANT	4	I/E Range
POSFEEDENABLE	TOGGLE	F	Positive Feedback IR Comp
POSFEEDRESISTANCE	QUANT	0	Positive Feedback Resistance (ohm)
ACHSELECT	IQUANT	4	Ach Select
SENSECABLEID	IQUANT	7	Sense Cable ID
PWRCABLEID	IQUANT	7	Power Cable ID
DCCALDATE	LABEL	3/22/2024	DC Calibration Date
ACCALDATE	LABEL	3/22/2024	AC Calibration Date
THERMOSELECT	IQUANT	1	Thermo Select
FRAMEWORKVERSION	LABEL	7.8.4	Framework Version
INSTRUMENTVERSION	LABEL	4.42	Instrument Version
CURVE1	TABLE
	Pt	T	Vf	Im	Vu	Sig	Ach	IERange	Over	Temp
	#	s	V vs. Ref.	A	V	V	V	#	bits	deg C
	0	0.0002	1.43971E-002	2.05000E-007	0.00000E+000	1.51500E-002	8.15923E-005	8	..........a	-327.66
	3	0.0008	-1.48529E-002	-2.40510E-006	0.00000E+000	-1.48500E-002	8.15923E-005	8	..........a	-327.66
	6	0.0014	-4.48529E-002	-3.71515E-006	0.00000E+000	-4.48500E-002	8.15923E-005	8	..........a	-327.66
	9	0.002	-7.48529E-002	-4.64519E-006	0.00000E+000	-7.48500E-002	8.15923E-005	8	..........a	-327.66
	12	0.0026	-1.04853E-001	-5.31521E-006	0.00000E+000	-1.04850E-001	8.15923E-005	8	..........a	-327.66
	15	0.0032	-1.34953E-001	-5.83523E-006	0.00000E+000	-1.34850E-001	8.15923E-005	8	..........a	-327.66
	18	0.0038	-1.64953E-001	-6.35525E-006	0.00000E+000	-1.64850E-001	8.15923E-005	8	..........a	-327.66
	21	0.0044	-1.94753E-001	-6.71527E-006	0.00000E+000	-1.94850E-001	8.15923E-005	8	..........a	-327.66
	24	0.005	-2.24853E-001	-7.09528E-006	0.00000E+000	-2.24850E-001	8.15923E-005	8	..........a	-327.66
	27	0.0056	-2.54753E-001	-7.44529E-006	0.00000E+000	-2.54850E-001	8.15923E-005	8	..........a	-327.66
	30	0.0062	-2.84853E-001	-7.84531E-006	0.00000E+000	-2.84850E-001	-2.18408E-004	8	..........a	-327.66
	33	0.0068	-3.14753E-001	-8.15532E-006	0.00000E+000	-3.14850E-001	8.15923E-005	8	..........a	-327.66
	36	0.0074	-3.44653E-001	-8.59534E-006	0.00000E+000	-3.44850E-001	8.15923E-005	8	..........a	-327.66
	39	0.008	-3.74753E-001	-9.00535E-006	0.00000E+000	-3.74850E-001	8.15923E-005	8	..........a	-327.66
	42	0.0086	-4.04653E-001	-9.43537E-006	0.00000E+000	-4.04850E-001	8.15923E-005	8	..........a	-327.66
	45	0.0092	-4.34753E-001	-9.88539E-006	0.00000E+000	-4.34850E-001	8.15923E-005	8	..........a	-327.66
	48	0.0098	-4.64653E-001	-1.04054E-005	0.00000E+000	-4.64850E-001	8.15923E-005	8	..........a	-327.66
	51	0.0104	-4.94753E-001	-1.08654E-005	0.00000E+000	-4.94850E-001	8.15923E-005	8	..........a	-327.66
	54	0.011	-5.24753E-001	-1.12954E-005	0.00000E+000	-5.24850E-001	8.15923E-005	8	..........a	-327.66
	57	0.0116	-5.54853E-001	-1.17755E-005	0.00000E+000	-5.54850E-001	8.15923E-005	8	..........a	-327.66
[...]
	2763	0.5528	3.70047E-001	-9.41537E-006	0.00000E+000	3.70000E-001	8.15923E-005	8	..........a	-327.66
	2764	0.553	3.59847E-001	-9.69538E-006	0.00000E+000	3.60000E-001	8.15923E-005	8	..........a	-327.66
	2765	0.5532	3.50047E-001	-1.00754E-005	0.00000E+000	3.50000E-001	8.15923E-005	8	..........a	-327.66
	2766	0.5534	3.40047E-001	-1.03254E-005	0.00000E+000	3.40000E-001	8.15923E-005	8	..........a	-327.66
	2767	0.5536	3.30047E-001	-1.05654E-005	0.00000E+000	3.30000E-001	8.15923E-005	8	..........a	-327.66
	2768	0.5538	3.19997E-001	-1.07954E-005	0.00000E+000	3.20000E-001	8.15923E-005	8	..........a	-327.66
	2769	0.554	3.10047E-001	-1.09754E-005	0.00000E+000	3.10000E-001	8.15923E-005	8	..........a	-327.66
	2770	0.5542	3.00147E-001	-1.11754E-005	0.00000E+000	3.00000E-001	8.15923E-005	8	..........a	-327.66
	2771	0.5544	2.90047E-001	-1.13854E-005	0.00000E+000	2.90000E-001	8.15923E-005	8	..........a	-327.66
	2772	0.5546	2.80047E-001	-1.16255E-005	0.00000E+000	2.80000E-001	8.15923E-005	8	..........a	-327.66
	2773	0.5548	2.70047E-001	-1.18455E-005	0.00000E+000	2.70000E-001	8.15923E-005	8	..........a	-327.66
	2774	0.555	2.60047E-001	-1.21055E-005	0.00000E+000	2.60000E-001	8.15923E-005	8	..........a	-327.66
	2775	0.5552	2.49897E-001	-1.23855E-005	0.00000E+000	2.50000E-001	8.15923E-005	8	..........a	-327.66
	2776	0.5554	2.40047E-001	-1.26255E-005	0.00000E+000	2.40000E-001	8.15923E-005	8	..........a	-327.66
	2777	0.5556	2.29947E-001	-1.28255E-005	0.00000E+000	2.30000E-001	8.15923E-005	8	..........a	-327.66
	2778	0.5558	2.19847E-001	-1.30555E-005	0.00000E+000	2.20000E-001	8.15923E-005	8	..........a	-327.66
	2779	0.556	2.10047E-001	-1.32755E-005	0.00000E+000	2.10000E-001	8.15923E-005	8	..........a	-327.66
	2780	0.5562	2.00047E-001	-1.35155E-005	0.00000E+000	2.00000E-001	-3.18408E-004	8	..........a	-327.66
	2781	0.5564	1.90047E-001	-1.36355E-005	0.00000E+000	1.90000E-001	8.15923E-005	8	..........a	-327.66
	2782	0.5566	1.80147E-001	-1.38355E-005	0.00000E+000	1.80000E-001	8.15923E-005	8	..........a	-327.66
	2783	0.5568	1.69947E-001	-1.39755E-005	0.00000E+000	1.70000E-001	8.15923E-005	8	..........a	-327.66
	2784	0.557	1.60047E-001	-1.40855E-005	0.00000E+000	1.60000E-001	8.15923E-005	8	..........a	-327.66
	2785	0.5572	1.50047E-001	-1.42756E-005	0.00000E+000	1.50000E-001	-2.18408E-004	8	..........a	-327.66
	2786	0.5574	1.40047E-001	-1.43756E-005	0.00000E+000	1.40000E-001	8.15923E-005	8	..........a	-327.66
	2787	0.5576	1.30047E-001	-1.44556E-005	0.00000E+000	1.30000E-001	8.15923E-005	8	..........a	-327.66
	2788	0.5578	1.20047E-001	-1.46056E-005	0.00000E+000	1.20000E-001	8.15923E-005	8	..........a	-327.66
	2789	0.558	1.10147E-001	-1.46956E-005	0.00000E+000	1.10000E-001	8.15923E-005	8	..........a	-327.66
	2790	0.5582	1.00147E-001	-1.47956E-005	0.00000E+000	1.00000E-001	8.15923E-005	8	..........a	-327.66
	2791	0.5584	9.00471E-002	-1.48556E-005	0.00000E+000	9.00000E-002	-2.18408E-004	8	..........a	-327.66
	2792	0.5586	8.00471E-002	-1.49656E-005	0.00000E+000	8.00000E-002	8.15923E-005	8	..........a	-327.66
	2793	0.5588	7.00471E-002	-1.50756E-005	0.00000E+000	7.00000E-002	8.15923E-005	8	..........a	-327.66
	2794	0.559	6.00471E-002	-1.51556E-005	0.00000E+000	6.00000E-002	8.15923E-005	8	..........a	-327.66
	2795	0.5592	5.00471E-002	-1.52756E-005	0.00000E+000	5.00000E-002	8.15923E-005	8	..........a	-327.66
	2796	0.5594	3.99471E-002	-1.53456E-005	0.00000E+000	4.00000E-002	8.15923E-005	8	..........a	-327.66
	2797	0.5596	3.00471E-002	-1.53956E-005	0.00000E+000	3.00000E-002	8.15923E-005	8	..........a	-327.66
	2798	0.5598	2.00971E-002	-1.55156E-005	0.00000E+000	2.00000E-002	8.15923E-005	8	..........a	-327.66

File: 20240424_ZY_GM0016_HL03_E13_CV50.DTA
EXPLAIN
TAG	CV
TITLE	LABEL	Cyclic Voltammetry	Test &Identifier
DATE	LABEL	4/24/2024	Date
TIME	LABEL	19:34:43	Time
NOTES	NOTES	1	&Notes...

PSTAT	PSTAT	REF600P-43058	Potentiostat
VINIT	POTEN	0.00000E+000	T	Initial &E (V)
VLIMIT1	POTEN	-6.00000E-001	F	Scan Limit &1 (V)
VLIMIT2	POTEN	8.00000E-001	F	Scan Limit &2 (V)
VFINAL	POTEN	0.00000E+000	T	Final &E (V)
SCANRATE	QUANT	4.99999E+001	&Scan Rate (mV/s)
STEPSIZE	QUANT	1.00000E+001	St&ep Size (mV)
CYCLES	IQUANT	4	C&ycles (#)
IMODE	SELECTOR	0	I/E Range &Mode
IRANGE	QUANT	1.00000E-005	&Max Current (mA)
AREA	QUANT	1.00000E+000	Electrode &Area (cm^2)
ELECTRODETYPE	SELECTOR	0	Electrode Type
STRIPPING	TOGGLE	F	Used for Stripping
POLARITY	TOGGLE	F	Signal Polarity
CONDIT	TWOPARAM	F	1.50000E+001	0.00000E+000	Conditionin&g	Time(s)	E(V)
DELAY	TWOPARAM	T	1.00000E+001	0.00000E+000	Init. De&lay	Time(s)	Stab.(mV/s)
EQDELAY	QUANT	1.00000E+001	Equil. &Time (s)
IRCOMP	SELECTOR	0	IRCom&p
PFCOR	QUANT	5.00000E+001	PF Corr. (ohm)
SAMPLINGMODE	SELECTOR	1	Sampling &Mode
OCVCURVE	TABLE	39
	Pt	T	Vf	Vm	Ach	Over	Temp
	#	s	V vs. Ref.	V	V	bits	deg C
	0	0.258333	1.25664E-002	1.25664E-002	2.50526E-004	..........a	-327.66
	1	0.516667	1.25670E-002	1.26003E-002	2.42726E-004	..........a	-327.66
	2	0.775	1.25710E-002	1.26331E-002	2.40392E-004	..........a	-327.66
	3	1.03333	1.25824E-002	1.26666E-002	2.38726E-004	..........a	-327.66
	4	1.29167	1.26030E-002	1.26991E-002	2.48126E-004	..........a	-327.66
	5	1.55	1.26309E-002	1.27292E-002	2.32392E-004	..........a	-327.66
	6	1.80833	1.26624E-002	1.27628E-002	2.33326E-004	..........a	-327.66
	7	2.06667	1.26950E-002	1.27946E-002	2.32392E-004	..........a	-327.66
	8	2.325	1.27276E-002	1.28271E-002	2.37926E-004	..........a	-327.66
	9	2.58333	1.27600E-002	1.28621E-002	2.44126E-004	..........a	-327.66
	10	2.84167	1.27926E-002	1.28931E-002	2.39859E-004	..........a	-327.66
	11	3.1	1.28254E-002	1.29263E-002	2.40659E-004	..........a	-327.66
	12	3.35833	1.28582E-002	1.29574E-002	2.30792E-004	..........a	-327.66
	13	3.61667	1.28907E-002	1.29822E-002	2.30259E-004	..........a	-327.66
	14	3.875	1.29221E-002	1.30082E-002	2.37592E-004	..........a	-327.66
	15	4.13333	1.29518E-002	1.30313E-002	2.26992E-004	..........a	-327.66
	16	4.39167	1.29793E-002	1.30507E-002	2.31859E-004	..........a	-327.66
	17	4.65	1.30045E-002	1.30729E-002	2.23392E-004	..........a	-327.66
	18	4.90833	1.30278E-002	1.30947E-002	2.36259E-004	..........a	-327.66
	19	5.16667	1.30499E-002	1.31160E-002	2.37259E-004	..........a	-327.66
	20	5.425	1.30716E-002	1.31405E-002	2.27392E-004	..........a	-327.66
	21	5.68333	1.30933E-002	1.31603E-002	2.39126E-004	..........a	-327.66
	22	5.94167	1.31152E-002	1.31839E-002	2.29592E-004	..........a	-327.66
	23	6.2	1.31374E-002	1.32097E-002	2.25059E-004	..........a	-327.66
	24	6.45833	1.31600E-002	1.32313E-002	2.24926E-004	..........a	-327.66
	25	6.71667	1.31830E-002	1.32503E-002	2.29926E-004	..........a	-327.66
	26	6.975	1.32059E-002	1.32739E-002	2.29526E-004	..........a	-327.66
	27	7.23333	1.32283E-002	1.32971E-002	2.33726E-004	..........a	-327.66
	28	7.49167	1.32504E-002	1.33209E-002	2.25192E-004	..........a	-327.66
	29	7.75	1.32728E-002	1.33479E-002	2.41526E-004	..........a	-327.66
	30	8.00833	1.32962E-002	1.33759E-002	2.31059E-004	..........a	-327.66
	31	8.26667	1.33208E-002	1.34024E-002	2.37792E-004	..........a	-327.66
	32	8.525	1.33465E-002	1.34269E-002	2.19926E-004	..........a	-327.66
	33	8.78333	1.33730E-002	1.34546E-002	2.33392E-004	..........a	-327.66
	34	9.04167	1.33999E-002	1.35034E-002	2.24792E-004	..........a	-327.66
	35	9.3	1.34293E-002	1.35705E-002	2.28326E-004	..........a	-327.66
	36	9.5583	1.34656E-002	1.36381E-002	2.30792E-004	..........a	-327.66
	37	9.8167	1.35119E-002	1.36948E-002	2.40659E-004	..........a	-327.66
	38	10.075	1.35672E-002	1.37450E-002	2.30059E-004	..........a	-327.66
EOC	QUANT	0.0135672	Open Circuit (V)
PSTATMODEL	IQUANT	7	Pstat Model
PSTATSECTION	LABEL	REF600P-43058	Pstat Section
PSTATSERIALNO	LABEL	43058	Pstat Serial Number
CTRLMODE	IQUANT	1	Control Mode
ELECTROMETER	IQUANT	0	RE=0 or CS=1
IESTAB	IQUANT	2	I/E Stability
CASPEED	IQUANT	4	Control Amp Speed
CONVENTION	IQUANT	1	Current Convention
ICHRANGE	IQUANT	2	Ich Range
ICHRANGEMODE	TOGGLE	F	Ich Auto Range
ICHOFFSETENABLE	TOGGLE	F	Ich Offset Enable
ICHOFFSET	QUANT	0	Ich Offset (V)
ICHFILTER	IQUANT	2	Ich Filter
VCHRANGE	IQUANT	2	Vch Range
VCHRANGEMODE	TOGGLE	F	Vch Auto Range
VCHOFFSETENABLE	TOGGLE	F	Vch Offset Enable
VCHOFFSET	QUANT	0	Vch Offset (V)
VCHFILTER	IQUANT	2	Vch Filter
ACHRANGE	IQUANT	2	Ach Range
ACHOFFSETENABLE	TOGGLE	F	Ach Offset Enable
ACHOFFSET	QUANT	0	Ach Offset (V)
ACHFILTER	IQUANT	1	Ach Filter
IERANGELOWERLIMIT	IQUANT	1	I/E Range Lower Limit
IERANGEMODE	TOGGLE	T	I/E AutoRange
IERANGE	IQUANT	4	I/E Range
POSFEEDENABLE	TOGGLE	F	Positive Feedback IR Comp
POSFEEDRESISTANCE	QUANT	0	Positive Feedback Resistance (ohm)
ACHSELECT	IQUANT	4	Ach Select
SENSECABLEID	IQUANT	7	Sense Cable ID
PWRCABLEID	IQUANT	7	Power Cable ID
DCCALDATE	LABEL	3/22/2024	DC Calibration Date
ACCALDATE	LABEL	3/22/2024	AC Calibration Date
THERMOSELECT	IQUANT	1	Thermo Select
FRAMEWORKVERSION	LABEL	7.8.4	Framework Version
INSTRUMENTVERSION	LABEL	4.42	Instrument Version
CURVE1	TABLE
	Pt	T	Vf	Im	Vu	Sig	Ach	IERange	Over	Temp
	#	s	V vs. Ref.	A	V	V	V	#	bits	deg C
	0	0.2	1.36837E-002	6.89491E-011	0.00000E+000	1.35500E-002	9.99892E-004	5	..........a	-327.66
	2	0.6	-6.43361E-003	-7.61510E-009	0.00000E+000	-6.45000E-003	9.99092E-004	5	..........a	-327.66
	4	1	-2.63911E-002	-1.24811E-008	0.00000E+000	-2.64500E-002	9.95192E-004	5	..........a	-327.66
	6	1.4	-4.64106E-002	-1.66283E-008	0.00000E+000	-4.64500E-002	1.00429E-003	5	..........a	-327.66
	8	1.8	-6.63475E-002	-2.04045E-008	0.00000E+000	-6.64500E-002	1.00339E-003	5	..........a	-327.66
	10	2.2	-8.62884E-002	-2.40460E-008	0.00000E+000	-8.64500E-002	9.92492E-004	5	..........a	-327.66
	12	2.6	-1.06365E-001	-2.76526E-008	0.00000E+000	-1.06450E-001	9.94092E-004	5	..........a	-327.66
	14	3	-1.26398E-001	-3.12782E-008	0.00000E+000	-1.26450E-001	1.00539E-003	5	..........a	-327.66
	16	3.4	-1.46349E-001	-3.50052E-008	0.00000E+000	-1.46450E-001	9.88992E-004	5	..........a	-327.66
	18	3.8	-1.66355E-001	-3.87969E-008	0.00000E+000	-1.66450E-001	9.86492E-004	5	..........a	-327.66
	20	4.2	-1.86338E-001	-4.26713E-008	0.00000E+000	-1.86450E-001	9.85792E-004	5	..........a	-327.66
	22	4.6	-2.06337E-001	-4.65221E-008	0.00000E+000	-2.06450E-001	9.88092E-004	5	..........a	-327.66
	24	5	-2.26301E-001	-5.02977E-008	0.00000E+000	-2.26450E-001	1.00359E-003	5	..........a	-327.66
	26	5.4	-2.46316E-001	-5.40431E-008	0.00000E+000	-2.46450E-001	9.87192E-004	5	..........a	-327.66
	28	5.8	-2.66293E-001	-5.77737E-008	0.00000E+000	-2.66450E-001	9.74392E-004	5	..........a	-327.66
	30	6.2	-2.86337E-001	-6.15009E-008	0.00000E+000	-2.86450E-001	9.84592E-004	5	..........a	-327.66
	32	6.6	-3.06316E-001	-6.53512E-008	0.00000E+000	-3.06450E-001	9.83692E-004	5	..........a	-327.66
	34	7	-3.26341E-001	-6.93054E-008	0.00000E+000	-3.26450E-001	1.01099E-003	5	..........a	-327.66
	36	7.4	-3.46295E-001	-7.34500E-008	0.00000E+000	-3.46450E-001	9.97792E-004	5	..........a	-327.66
	38	7.8	-3.66329E-001	-7.77670E-008	0.00000E+000	-3.66450E-001	1.01289E-003	5	..........a	-327.66
	40	8.2	-3.86256E-001	-8.22904E-008	0.00000E+000	-3.86450E-001	9.92092E-004	5	..........a	-327.66
[...]
	1085	217.2	3.60025E-001	-2.25337E-008	0.00000E+000	3.60000E-001	1.00179E-003	5	..........a	-327.66
	1086	217.4	3.50061E-001	-2.49901E-008	0.00000E+000	3.50000E-001	1.02979E-003	5	..........a	-327.66
	1087	217.6	3.40096E-001	-2.73978E-008	0.00000E+000	3.40000E-001	1.00139E-003	5	..........a	-327.66
	1088	217.8	3.30057E-001	-2.98384E-008	0.00000E+000	3.30000E-001	1.00449E-003	5	..........a	-327.66
	1089	218	3.20058E-001	-3.23164E-008	0.00000E+000	3.20000E-001	1.01299E-003	5	..........a	-327.66
	1090	218.2	3.10071E-001	-3.47221E-008	0.00000E+000	3.10000E-001	1.00769E-003	5	..........a	-327.66
	1091	218.4	3.00105E-001	-3.71531E-008	0.00000E+000	3.00000E-001	9.88992E-004	5	..........a	-327.66
	1092	218.6	2.90076E-001	-3.95919E-008	0.00000E+000	2.90000E-001	1.00919E-003	5	..........a	-327.66
	1093	218.8	2.80008E-001	-4.19949E-008	0.00000E+000	2.80000E-001	9.96792E-004	5	..........a	-327.66
	1094	219	2.70098E-001	-4.42671E-008	0.00000E+000	2.70000E-001	9.95992E-004	5	..........a	-327.66
	1095	219.2	2.60089E-001	-4.64708E-008	0.00000E+000	2.60000E-001	1.00649E-003	5	..........a	-327.66
	1096	219.4	2.50031E-001	-4.85791E-008	0.00000E+000	2.50000E-001	1.01429E-003	5	..........a	-327.66
	1097	219.6	2.40084E-001	-5.05440E-008	0.00000E+000	2.40000E-001	1.01379E-003	5	..........a	-327.66
	1098	219.8	2.30023E-001	-5.24170E-008	0.00000E+000	2.30000E-001	1.01029E-003	5	..........a	-327.66
	1099	220	2.20028E-001	-5.40870E-008	0.00000E+000	2.20000E-001	9.93692E-004	5	..........a	-327.66
	1100	220.2	2.10071E-001	-5.56653E-008	0.00000E+000	2.10000E-001	9.93492E-004	5	..........a	-327.66
	1101	220.4	2.00072E-001	-5.69653E-008	0.00000E+000	2.00000E-001	1.01459E-003	5	..........a	-327.66
	1102	220.6	1.90130E-001	-5.80880E-008	0.00000E+000	1.90000E-001	1.01189E-003	5	..........a	-327.66
	1103	220.8	1.80136E-001	-5.90144E-008	0.00000E+000	1.80000E-001	9.89692E-004	5	..........a	-327.66
	1104	221	1.70113E-001	-5.97560E-008	0.00000E+000	1.70000E-001	1.01829E-003	5	..........a	-327.66
	1105	221.2	1.60101E-001	-6.02932E-008	0.00000E+000	1.60000E-001	1.00909E-003	5	..........a	-327.66
	1106	221.4	1.50113E-001	-6.06611E-008	0.00000E+000	1.50000E-001	1.02449E-003	5	..........a	-327.66
	1107	221.6	1.40154E-001	-6.08663E-008	0.00000E+000	1.40000E-001	9.90992E-004	5	..........a	-327.66
	1108	221.8	1.30103E-001	-6.09638E-008	0.00000E+000	1.30000E-001	9.96492E-004	5	..........a	-327.66
	1109	222	1.20099E-001	-6.09938E-008	0.00000E+000	1.20000E-001	1.00929E-003	5	..........a	-327.66
	1110	222.2	1.10130E-001	-6.10151E-008	0.00000E+000	1.10000E-001	1.00039E-003	5	..........a	-327.66
	1111	222.4	1.00160E-001	-6.10690E-008	0.00000E+000	1.00000E-001	9.88692E-004	5	..........a	-327.66
	1112	222.6	9.01226E-002	-6.12372E-008	0.00000E+000	9.00000E-002	9.93592E-004	5	..........a	-327.66
	1113	222.8	8.00791E-002	-6.14755E-008	0.00000E+000	8.00000E-002	1.00959E-003	5	..........a	-327.66
	1114	223	7.00533E-002	-6.18428E-008	0.00000E+000	7.00000E-002	1.02389E-003	5	..........a	-327.66
	1115	223.2	6.01397E-002	-6.23416E-008	0.00000E+000	6.00000E-002	1.00689E-003	5	..........a	-327.66
	1116	223.4	5.00812E-002	-6.30113E-008	0.00000E+000	5.00000E-002	1.00859E-003	5	..........a	-327.66
	1117	223.6	4.01016E-002	-6.37300E-008	0.00000E+000	4.00000E-002	9.92192E-004	5	..........a	-327.66
	1118	223.8	3.00796E-002	-6.43850E-008	0.00000E+000	3.00000E-002	1.00499E-003	5	..........a	-327.66
	1119	224	2.02014E-002	-6.52223E-008	0.00000E+000	2.00000E-002	9.90192E-004	5	..........a	-327.66
	1120	224.2	1.01369E-002	-6.58679E-008	0.00000E+000	1.00000E-002	9.87192E-004	5	..........a	-327.66