Folder: GamryParser/data/raw/batch_data (part 16)

File: 20240424_ZZC_GM0016_HL03_E14_CV50.DTA
EXPLAIN
TAG	CV
TITLE	LABEL	Cyclic Voltammetry	Test &Identifier
DATE	LABEL	4/24/2024	Date
TIME	LABEL	19:46:20	Time
NOTES	NOTES	1	&Notes...

PSTAT	PSTAT	REF600P-43058	Potentiostat
VINIT	POTEN	0.00000E+000	T	Initial &E (V)
VLIMIT1	POTEN	-6.00000E-001	F	Scan Limit &1 (V)
VLIMIT2	POTEN	8.00000E-001	F	Scan Limit &2 (V)
VFINAL	POTEN	0.00000E+000	T	Final &E (V)
SCANRATE	QUANT	4.99999E+001	&Scan Rate (mV/s)
STEPSIZE	QUANT	1.00000E+001	St&ep Size (mV)
CYCLES	IQUANT	4	C&ycles (#)
IMODE	SELECTOR	0	I/E Range &Mode
IRANGE	QUANT	1.00000E-005	&Max Current (mA)
AREA	QUANT	1.00000E+000	Electrode &Area (cm^2)
ELECTRODETYPE	SELECTOR	0	Electrode Type
STRIPPING	TOGGLE	F	Used for Stripping
POLARITY	TOGGLE	F	Signal Polarity
CONDIT	TWOPARAM	F	1.50000E+001	0.00000E+000	Conditionin&g	Time(s)	E(V)
DELAY	TWOPARAM	T	1.00000E+001	0.00000E+000	Init. De&lay	Time(s)	Stab.(mV/s)
EQDELAY	QUANT	1.00000E+001	Equil. &Time (s)
IRCOMP	SELECTOR	0	IRCom&p
PFCOR	QUANT	5.00000E+001	PF Corr. (ohm)
SAMPLINGMODE	SELECTOR	1	Sampling &Mode
OCVCURVE	TABLE	39
	Pt	T	Vf	Vm	Ach	Over	Temp
	#	s	V vs. Ref.	V	V	bits	deg C
	0	0.258333	-1.33549E-002	-1.33549E-002	2.36192E-004	..........a	-327.66
	1	0.516667	-1.33556E-002	-1.33888E-002	2.33926E-004	..........a	-327.66
	2	0.775	-1.33596E-002	-1.34255E-002	2.46459E-004	..........a	-327.66
	3	1.03333	-1.33714E-002	-1.34620E-002	2.34592E-004	..........a	-327.66
	4	1.29167	-1.33932E-002	-1.34969E-002	2.35859E-004	..........a	-327.66
	5	1.55	-1.34232E-002	-1.35337E-002	2.55059E-004	..........a	-327.66
	6	1.80833	-1.34577E-002	-1.35689E-002	2.55592E-004	..........a	-327.66
	7	2.06667	-1.34937E-002	-1.36009E-002	2.40926E-004	..........a	-327.66
	8	2.325	-1.35296E-002	-1.36330E-002	2.44126E-004	..........a	-327.66
	9	2.58333	-1.35644E-002	-1.36668E-002	2.39992E-004	..........a	-327.66
	10	2.84167	-1.35981E-002	-1.37015E-002	2.41926E-004	..........a	-327.66
	11	3.1	-1.36314E-002	-1.37322E-002	2.55259E-004	..........a	-327.66
	12	3.35833	-1.36645E-002	-1.37658E-002	2.39859E-004	..........a	-327.66
	13	3.61667	-1.36975E-002	-1.37971E-002	2.48792E-004	..........a	-327.66
	14	3.875	-1.37302E-002	-1.38307E-002	2.36392E-004	..........a	-327.66
	15	4.13333	-1.37628E-002	-1.38624E-002	2.41526E-004	..........a	-327.66
	16	4.39167	-1.37953E-002	-1.38962E-002	2.36126E-004	..........a	-327.66
	17	4.65	-1.38278E-002	-1.39272E-002	2.49526E-004	..........a	-327.66
	18	4.90833	-1.38603E-002	-1.39584E-002	2.51792E-004	..........a	-327.66
	19	5.16667	-1.38925E-002	-1.39873E-002	2.32926E-004	..........a	-327.66
	20	5.425	-1.39242E-002	-1.40179E-002	2.45126E-004	..........a	-327.66
	21	5.68333	-1.39551E-002	-1.40507E-002	2.42326E-004	..........a	-327.66
	22	5.94167	-1.39857E-002	-1.40789E-002	2.54992E-004	..........a	-327.66
	23	6.2	-1.40163E-002	-1.41085E-002	2.40992E-004	..........a	-327.66
	24	6.45833	-1.40467E-002	-1.41389E-002	2.40392E-004	..........a	-327.66
	25	6.71667	-1.40767E-002	-1.41662E-002	2.51926E-004	..........a	-327.66
	26	6.975	-1.41063E-002	-1.41950E-002	2.44592E-004	..........a	-327.66
	27	7.23333	-1.41355E-002	-1.42250E-002	2.33259E-004	..........a	-327.66
	28	7.49167	-1.41644E-002	-1.42527E-002	2.50726E-004	..........a	-327.66
	29	7.75	-1.41932E-002	-1.42799E-002	2.52726E-004	..........a	-327.66
	30	8.00833	-1.42218E-002	-1.43079E-002	2.46859E-004	..........a	-327.66
	31	8.26667	-1.42501E-002	-1.43357E-002	2.48659E-004	..........a	-327.66
	32	8.525	-1.42780E-002	-1.43624E-002	2.39126E-004	..........a	-327.66
	33	8.78333	-1.43057E-002	-1.43923E-002	2.30592E-004	..........a	-327.66
	34	9.04167	-1.43334E-002	-1.44198E-002	2.40459E-004	..........a	-327.66
	35	9.3	-1.43613E-002	-1.44455E-002	2.51259E-004	..........a	-327.66
	36	9.5583	-1.43891E-002	-1.44711E-002	2.41926E-004	..........a	-327.66
	37	9.8167	-1.44164E-002	-1.44949E-002	2.47259E-004	..........a	-327.66
	38	10.075	-1.44429E-002	-1.45216E-002	2.46192E-004	..........a	-327.66
EOC	QUANT	-0.0144429	Open Circuit (V)
PSTATMODEL	IQUANT	7	Pstat Model
PSTATSECTION	LABEL	REF600P-43058	Pstat Section
PSTATSERIALNO	LABEL	43058	Pstat Serial Number
CTRLMODE	IQUANT	1	Control Mode
ELECTROMETER	IQUANT	0	RE=0 or CS=1
IESTAB	IQUANT	2	I/E Stability
CASPEED	IQUANT	4	Control Amp Speed
CONVENTION	IQUANT	1	Current Convention
ICHRANGE	IQUANT	2	Ich Range
ICHRANGEMODE	TOGGLE	F	Ich Auto Range
ICHOFFSETENABLE	TOGGLE	F	Ich Offset Enable
ICHOFFSET	QUANT	0	Ich Offset (V)
ICHFILTER	IQUANT	2	Ich Filter
VCHRANGE	IQUANT	2	Vch Range
VCHRANGEMODE	TOGGLE	F	Vch Auto Range
VCHOFFSETENABLE	TOGGLE	F	Vch Offset Enable
VCHOFFSET	QUANT	0	Vch Offset (V)
VCHFILTER	IQUANT	2	Vch Filter
ACHRANGE	IQUANT	2	Ach Range
ACHOFFSETENABLE	TOGGLE	F	Ach Offset Enable
ACHOFFSET	QUANT	0	Ach Offset (V)
ACHFILTER	IQUANT	1	Ach Filter
IERANGELOWERLIMIT	IQUANT	1	I/E Range Lower Limit
IERANGEMODE	TOGGLE	T	I/E AutoRange
IERANGE	IQUANT	4	I/E Range
POSFEEDENABLE	TOGGLE	F	Positive Feedback IR Comp
POSFEEDRESISTANCE	QUANT	0	Positive Feedback Resistance (ohm)
ACHSELECT	IQUANT	4	Ach Select
SENSECABLEID	IQUANT	7	Sense Cable ID
PWRCABLEID	IQUANT	7	Power Cable ID
DCCALDATE	LABEL	3/22/2024	DC Calibration Date
ACCALDATE	LABEL	3/22/2024	AC Calibration Date
THERMOSELECT	IQUANT	1	Thermo Select
FRAMEWORKVERSION	LABEL	7.8.4	Framework Version
INSTRUMENTVERSION	LABEL	4.42	Instrument Version
CURVE1	TABLE
	Pt	T	Vf	Im	Vu	Sig	Ach	IERange	Over	Temp
	#	s	V vs. Ref.	A	V	V	V	#	bits	deg C
	0	0.2	-1.43899E-002	4.12792E-010	0.00000E+000	-1.44500E-002	1.00329E-003	5	..........a	-327.66
	2	0.6	-3.43867E-002	-5.81443E-009	0.00000E+000	-3.44500E-002	9.92992E-004	5	..........a	-327.66
	4	1	-5.44056E-002	-9.99896E-009	0.00000E+000	-5.44500E-002	9.92392E-004	5	..........a	-327.66
	6	1.4	-7.43637E-002	-1.37749E-008	0.00000E+000	-7.44500E-002	1.00559E-003	5	..........a	-327.66
	8	1.8	-9.43967E-002	-1.74045E-008	0.00000E+000	-9.44500E-002	1.00209E-003	5	..........a	-327.66
	10	2.2	-1.14374E-001	-2.11428E-008	0.00000E+000	-1.14450E-001	1.00669E-003	5	..........a	-327.66
	12	2.6	-1.34407E-001	-2.49086E-008	0.00000E+000	-1.34450E-001	1.00379E-003	5	..........a	-327.66
	14	3	-1.54357E-001	-2.88122E-008	0.00000E+000	-1.54450E-001	1.01729E-003	5	..........a	-327.66
	16	3.4	-1.74415E-001	-3.27392E-008	0.00000E+000	-1.74450E-001	1.00589E-003	5	..........a	-327.66
	18	3.8	-1.94357E-001	-3.67375E-008	0.00000E+000	-1.94450E-001	9.92392E-004	5	..........a	-327.66
	20	4.2	-2.14352E-001	-4.07326E-008	0.00000E+000	-2.14450E-001	1.02349E-003	5	..........a	-327.66
	22	4.6	-2.34312E-001	-4.47166E-008	0.00000E+000	-2.34450E-001	1.00169E-003	5	..........a	-327.66
	24	5	-2.54365E-001	-4.86836E-008	0.00000E+000	-2.54450E-001	1.02219E-003	5	..........a	-327.66
	26	5.4	-2.74288E-001	-5.26391E-008	0.00000E+000	-2.74450E-001	9.93492E-004	5	..........a	-327.66
	28	5.8	-2.94305E-001	-5.65916E-008	0.00000E+000	-2.94450E-001	1.00409E-003	5	..........a	-327.66
	30	6.2	-3.14271E-001	-6.05780E-008	0.00000E+000	-3.14450E-001	1.00279E-003	5	..........a	-327.66
	32	6.6	-3.34364E-001	-6.45494E-008	0.00000E+000	-3.34450E-001	1.00509E-003	5	..........a	-327.66
	34	7	-3.54302E-001	-6.85508E-008	0.00000E+000	-3.54450E-001	9.96392E-004	5	..........a	-327.66
	36	7.4	-3.74292E-001	-7.25704E-008	0.00000E+000	-3.74450E-001	1.00739E-003	5	..........a	-327.66
	38	7.8	-3.94258E-001	-7.66132E-008	0.00000E+000	-3.94450E-001	1.00509E-003	5	..........a	-327.66
[...]
	1085	217.2	3.40099E-001	-1.90162E-008	0.00000E+000	3.40000E-001	1.01449E-003	5	..........a	-327.66
	1086	217.4	3.30023E-001	-2.13049E-008	0.00000E+000	3.30000E-001	9.99092E-004	5	..........a	-327.66
	1087	217.6	3.20063E-001	-2.35168E-008	0.00000E+000	3.20000E-001	1.00469E-003	5	..........a	-327.66
	1088	217.8	3.10071E-001	-2.57102E-008	0.00000E+000	3.10000E-001	1.00939E-003	5	..........a	-327.66
	1089	218	3.00103E-001	-2.78378E-008	0.00000E+000	3.00000E-001	1.00399E-003	5	..........a	-327.66
	1090	218.2	2.90070E-001	-2.98659E-008	0.00000E+000	2.90000E-001	1.00659E-003	5	..........a	-327.66
	1091	218.4	2.79996E-001	-3.18886E-008	0.00000E+000	2.80000E-001	9.96692E-004	5	..........a	-327.66
	1092	218.6	2.70065E-001	-3.37308E-008	0.00000E+000	2.70000E-001	9.93992E-004	5	..........a	-327.66
	1093	218.8	2.60074E-001	-3.55019E-008	0.00000E+000	2.60000E-001	9.91792E-004	5	..........a	-327.66
	1094	219	2.50014E-001	-3.71089E-008	0.00000E+000	2.50000E-001	9.97292E-004	5	..........a	-327.66
	1095	219.2	2.40056E-001	-3.85874E-008	0.00000E+000	2.40000E-001	9.99692E-004	5	..........a	-327.66
	1096	219.4	2.30030E-001	-3.98668E-008	0.00000E+000	2.30000E-001	1.01869E-003	5	..........a	-327.66
	1097	219.6	2.20077E-001	-4.10022E-008	0.00000E+000	2.20000E-001	9.90592E-004	5	..........a	-327.66
	1098	219.8	2.10031E-001	-4.20358E-008	0.00000E+000	2.10000E-001	9.95192E-004	5	..........a	-327.66
	1099	220	2.00057E-001	-4.28009E-008	0.00000E+000	2.00000E-001	1.00859E-003	5	..........a	-327.66
	1100	220.2	1.90117E-001	-4.33981E-008	0.00000E+000	1.90000E-001	9.97992E-004	5	..........a	-327.66
	1101	220.4	1.80107E-001	-4.38125E-008	0.00000E+000	1.80000E-001	9.90592E-004	5	..........a	-327.66
	1102	220.6	1.70098E-001	-4.40815E-008	0.00000E+000	1.70000E-001	1.00679E-003	5	..........a	-327.66
	1103	220.8	1.60090E-001	-4.42390E-008	0.00000E+000	1.60000E-001	1.00999E-003	5	..........a	-327.66
	1104	221	1.50111E-001	-4.43630E-008	0.00000E+000	1.50000E-001	9.95192E-004	5	..........a	-327.66
	1105	221.2	1.40137E-001	-4.44202E-008	0.00000E+000	1.40000E-001	9.97592E-004	5	..........a	-327.66
	1106	221.4	1.30091E-001	-4.44886E-008	0.00000E+000	1.30000E-001	1.00009E-003	5	..........a	-327.66
	1107	221.6	1.20105E-001	-4.46445E-008	0.00000E+000	1.20000E-001	9.94892E-004	5	..........a	-327.66
	1108	221.8	1.10139E-001	-4.48548E-008	0.00000E+000	1.10000E-001	9.93592E-004	5	..........a	-327.66
	1109	222	1.00118E-001	-4.51713E-008	0.00000E+000	1.00000E-001	9.96192E-004	5	..........a	-327.66
	1110	222.2	9.01082E-002	-4.56183E-008	0.00000E+000	9.00000E-002	1.00349E-003	5	..........a	-327.66
	1111	222.4	8.00823E-002	-4.60380E-008	0.00000E+000	8.00000E-002	1.02089E-003	5	..........a	-327.66
	1112	222.6	7.00492E-002	-4.65759E-008	0.00000E+000	7.00000E-002	1.01979E-003	5	..........a	-327.66
	1113	222.8	6.01256E-002	-4.71574E-008	0.00000E+000	6.00000E-002	1.01689E-003	5	..........a	-327.66
	1114	223	5.00371E-002	-4.77533E-008	0.00000E+000	5.00000E-002	1.02069E-003	5	..........a	-327.66
	1115	223.2	4.00754E-002	-4.84052E-008	0.00000E+000	4.00000E-002	1.00499E-003	5	..........a	-327.66
	1116	223.4	3.00689E-002	-4.91338E-008	0.00000E+000	3.00000E-002	1.00679E-003	5	..........a	-327.66
	1117	223.6	2.01813E-002	-4.99151E-008	0.00000E+000	2.00000E-002	1.00329E-003	5	..........a	-327.66
	1118	223.8	1.01217E-002	-5.06562E-008	0.00000E+000	1.00000E-002	9.98192E-004	5	..........a	-327.66
	1119	224	5.85417E-005	-5.13709E-008	0.00000E+000	7.45058E-009	1.00119E-003	5	..........a	-327.66
	1120	224.2	-9.88236E-003	-5.18761E-008	0.00000E+000	-1.00000E-002	9.95992E-004	5	..........a	-327.66

File: 20240509_G_GM0016_HL03_E02_CV50.DTA
EXPLAIN
TAG	CV
TITLE	LABEL	Cyclic Voltammetry	Test &Identifier
DATE	LABEL	5/9/2024	Date
TIME	LABEL	12:44:04	Time
NOTES	NOTES	1	&Notes...

PSTAT	PSTAT	REF600P-43058	Potentiostat
VINIT	POTEN	0.00000E+000	T	Initial &E (V)
VLIMIT1	POTEN	8.00000E-001	F	Scan Limit &1 (V)
VLIMIT2	POTEN	-6.00000E-001	F	Scan Limit &2 (V)
VFINAL	POTEN	0.00000E+000	T	Final &E (V)
SCANRATE	QUANT	4.99999E+001	&Scan Rate (mV/s)
STEPSIZE	QUANT	1.00000E+001	St&ep Size (mV)
CYCLES	IQUANT	4	C&ycles (#)
IMODE	SELECTOR	0	I/E Range &Mode
IRANGE	QUANT	1.00000E-005	&Max Current (mA)
AREA	QUANT	1.00000E+000	Electrode &Area (cm^2)
ELECTRODETYPE	SELECTOR	0	Electrode Type
STRIPPING	TOGGLE	F	Used for Stripping
POLARITY	TOGGLE	F	Signal Polarity
CONDIT	TWOPARAM	F	1.50000E+001	0.00000E+000	Conditionin&g	Time(s)	E(V)
DELAY	TWOPARAM	T	1.00000E+001	0.00000E+000	Init. De&lay	Time(s)	Stab.(mV/s)
EQDELAY	QUANT	1.00000E+001	Equil. &Time (s)
IRCOMP	SELECTOR	0	IRCom&p
PFCOR	QUANT	5.00000E+001	PF Corr. (ohm)
SAMPLINGMODE	SELECTOR	1	Sampling &Mode
OCVCURVE	TABLE	39
	Pt	T	Vf	Vm	Ach	Over	Temp
	#	s	V vs. Ref.	V	V	bits	deg C
	0	0.258333	-1.22479E-001	-1.22479E-001	2.41992E-004	..........a	-327.66
	1	0.516667	-1.22480E-001	-1.22528E-001	2.47192E-004	..........a	-327.66
	2	0.775	-1.22486E-001	-1.22579E-001	2.59192E-004	..........a	-327.66
	3	1.03333	-1.22503E-001	-1.22636E-001	2.55659E-004	..........a	-327.66
	4	1.29167	-1.22534E-001	-1.22678E-001	2.54059E-004	..........a	-327.66
	5	1.55	-1.22577E-001	-1.22731E-001	2.65192E-004	..........a	-327.66
	6	1.80833	-1.22626E-001	-1.22783E-001	2.56926E-004	..........a	-327.66
	7	2.06667	-1.22676E-001	-1.22832E-001	2.58526E-004	..........a	-327.66
	8	2.325	-1.22727E-001	-1.22885E-001	2.57326E-004	..........a	-327.66
	9	2.58333	-1.22778E-001	-1.22935E-001	2.39326E-004	..........a	-327.66
	10	2.84167	-1.22829E-001	-1.22984E-001	2.55192E-004	..........a	-327.66
	11	3.1	-1.22880E-001	-1.23032E-001	2.46859E-004	..........a	-327.66
	12	3.35833	-1.22930E-001	-1.23067E-001	2.52126E-004	..........a	-327.66
	13	3.61667	-1.22978E-001	-1.23123E-001	2.41392E-004	..........a	-327.66
	14	3.875	-1.23025E-001	-1.23168E-001	2.63659E-004	..........a	-327.66
	15	4.13333	-1.23071E-001	-1.23217E-001	2.51526E-004	..........a	-327.66
	16	4.39167	-1.23118E-001	-1.23264E-001	2.35926E-004	..........a	-327.66
	17	4.65	-1.23165E-001	-1.23308E-001	2.64926E-004	..........a	-327.66
	18	4.90833	-1.23212E-001	-1.23361E-001	2.62992E-004	..........a	-327.66
	19	5.16667	-1.23259E-001	-1.23388E-001	2.63926E-004	..........a	-327.66
	20	5.425	-1.23305E-001	-1.23444E-001	2.45926E-004	..........a	-327.66
	21	5.68333	-1.23350E-001	-1.23488E-001	2.54059E-004	..........a	-327.66
	22	5.94167	-1.23394E-001	-1.23538E-001	2.69126E-004	..........a	-327.66
	23	6.2	-1.23439E-001	-1.23574E-001	2.39392E-004	..........a	-327.66
	24	6.45833	-1.23485E-001	-1.23624E-001	2.64526E-004	..........a	-327.66
	25	6.71667	-1.23530E-001	-1.23677E-001	2.54592E-004	..........a	-327.66
	26	6.975	-1.23575E-001	-1.23706E-001	2.61126E-004	..........a	-327.66
	27	7.23333	-1.23621E-001	-1.23764E-001	2.45192E-004	..........a	-327.66
	28	7.49167	-1.23666E-001	-1.23804E-001	2.50126E-004	..........a	-327.66
	29	7.75	-1.23711E-001	-1.23852E-001	2.45859E-004	..........a	-327.66
	30	8.00833	-1.23756E-001	-1.23890E-001	2.46992E-004	..........a	-327.66
	31	8.26667	-1.23801E-001	-1.23940E-001	2.59792E-004	..........a	-327.66
	32	8.525	-1.23846E-001	-1.23998E-001	2.58059E-004	..........a	-327.66
	33	8.78333	-1.23892E-001	-1.24027E-001	2.55526E-004	..........a	-327.66
	34	9.04167	-1.23938E-001	-1.24091E-001	2.48459E-004	..........a	-327.66
	35	9.3	-1.23986E-001	-1.24138E-001	2.46392E-004	..........a	-327.66
	36	9.5583	-1.24034E-001	-1.24181E-001	2.60392E-004	..........a	-327.66
	37	9.8167	-1.24083E-001	-1.24238E-001	2.63926E-004	..........a	-327.66
	38	10.075	-1.24132E-001	-1.24277E-001	2.51926E-004	..........a	-327.66
EOC	QUANT	-0.124132	Open Circuit (V)
PSTATMODEL	IQUANT	7	Pstat Model
PSTATSECTION	LABEL	REF600P-43058	Pstat Section
PSTATSERIALNO	LABEL	43058	Pstat Serial Number
CTRLMODE	IQUANT	1	Control Mode
ELECTROMETER	IQUANT	0	RE=0 or CS=1
IESTAB	IQUANT	2	I/E Stability
CASPEED	IQUANT	4	Control Amp Speed
CONVENTION	IQUANT	1	Current Convention
ICHRANGE	IQUANT	2	Ich Range
ICHRANGEMODE	TOGGLE	F	Ich Auto Range
ICHOFFSETENABLE	TOGGLE	F	Ich Offset Enable
ICHOFFSET	QUANT	0	Ich Offset (V)
ICHFILTER	IQUANT	2	Ich Filter
VCHRANGE	IQUANT	2	Vch Range
VCHRANGEMODE	TOGGLE	F	Vch Auto Range
VCHOFFSETENABLE	TOGGLE	F	Vch Offset Enable
VCHOFFSET	QUANT	0	Vch Offset (V)
VCHFILTER	IQUANT	2	Vch Filter
ACHRANGE	IQUANT	2	Ach Range
ACHOFFSETENABLE	TOGGLE	F	Ach Offset Enable
ACHOFFSET	QUANT	0	Ach Offset (V)
ACHFILTER	IQUANT	1	Ach Filter
IERANGELOWERLIMIT	IQUANT	1	I/E Range Lower Limit
IERANGEMODE	TOGGLE	T	I/E AutoRange
IERANGE	IQUANT	4	I/E Range
POSFEEDENABLE	TOGGLE	F	Positive Feedback IR Comp
POSFEEDRESISTANCE	QUANT	0	Positive Feedback Resistance (ohm)
ACHSELECT	IQUANT	4	Ach Select
SENSECABLEID	IQUANT	7	Sense Cable ID
PWRCABLEID	IQUANT	7	Power Cable ID
DCCALDATE	LABEL	3/22/2024	DC Calibration Date
ACCALDATE	LABEL	3/22/2024	AC Calibration Date
THERMOSELECT	IQUANT	1	Thermo Select
FRAMEWORKVERSION	LABEL	7.8.4	Framework Version
INSTRUMENTVERSION	LABEL	4.42	Instrument Version
CURVE1	TABLE
	Pt	T	Vf	Im	Vu	Sig	Ach	IERange	Over	Temp
	#	s	V vs. Ref.	A	V	V	V	#	bits	deg C
	0	0.2	-1.24120E-001	7.64635E-010	0.00000E+000	-1.24150E-001	1.01559E-003	5	..........a	-327.66
	3	0.8	-9.41228E-002	3.06200E-009	0.00000E+000	-9.41500E-002	1.06349E-003	5	..........a	-327.66
	6	1.4	-6.41075E-002	4.60847E-009	0.00000E+000	-6.41500E-002	1.02319E-003	5	..........a	-327.66
	9	2	-3.40390E-002	6.10731E-009	0.00000E+000	-3.41500E-002	1.03159E-003	5	..........a	-327.66
	12	2.6	-4.11586E-003	7.75493E-009	0.00000E+000	-4.15000E-003	1.02469E-003	5	..........a	-327.66
	15	3.2	2.58939E-002	9.71637E-009	0.00000E+000	2.58500E-002	1.04439E-003	5	..........a	-327.66
	18	3.8	5.58924E-002	1.19772E-008	0.00000E+000	5.58500E-002	1.03839E-003	5	..........a	-327.66
	21	4.4	8.59745E-002	1.47809E-008	0.00000E+000	8.58500E-002	1.02429E-003	5	..........a	-327.66
	24	5	1.15959E-001	1.85350E-008	0.00000E+000	1.15850E-001	1.01479E-003	5	..........a	-327.66
	27	5.6	1.45863E-001	2.37493E-008	0.00000E+000	1.45850E-001	1.04709E-003	5	..........a	-327.66
	30	6.2	1.75843E-001	4.38238E-008	0.00000E+000	1.75850E-001	1.02319E-003	5	..........a	-327.66
	33	6.8	2.05946E-001	4.22226E-008	0.00000E+000	2.05850E-001	1.03209E-003	5	..........a	-327.66
	36	7.4	2.35862E-001	4.18808E-008	0.00000E+000	2.35850E-001	1.00399E-003	5	..........a	-327.66
	39	8	2.65842E-001	4.65110E-008	0.00000E+000	2.65850E-001	1.02489E-003	5	..........a	-327.66
	42	8.6	2.95845E-001	5.14897E-008	0.00000E+000	2.95850E-001	1.01579E-003	5	..........a	-327.66
	45	9.2	3.25960E-001	5.65916E-008	0.00000E+000	3.25850E-001	1.03529E-003	5	..........a	-327.66
	48	9.8	3.55862E-001	6.25169E-008	0.00000E+000	3.55850E-001	1.01189E-003	5	..........a	-327.66
	51	10.4	3.85816E-001	6.94536E-008	0.00000E+000	3.85850E-001	1.02349E-003	5	..........a	-327.66
	54	11	4.15822E-001	7.73165E-008	0.00000E+000	4.15850E-001	1.05369E-003	5	..........a	-327.66
	57	11.6	4.45893E-001	8.60381E-008	0.00000E+000	4.45850E-001	1.01609E-003	5	..........a	-327.66
	60	12.2	4.75697E-001	9.51210E-008	0.00000E+000	4.75850E-001	1.03479E-003	5	..........a	-327.66
[...]
	1085	217.2	-4.69856E-001	-2.34060E-008	0.00000E+000	-4.70000E-001	1.03129E-003	5	..........a	-327.66
	1086	217.4	-4.59807E-001	-2.19930E-008	0.00000E+000	-4.60000E-001	1.00869E-003	5	..........a	-327.66
	1087	217.6	-4.49846E-001	-2.06796E-008	0.00000E+000	-4.50000E-001	9.96192E-004	5	..........a	-327.66
	1088	217.8	-4.39884E-001	-1.94014E-008	0.00000E+000	-4.40000E-001	1.00979E-003	5	..........a	-327.66
	1089	218	-4.29892E-001	-1.81485E-008	0.00000E+000	-4.30000E-001	9.98592E-004	5	..........a	-327.66
	1090	218.2	-4.19759E-001	-1.68859E-008	0.00000E+000	-4.20000E-001	1.00659E-003	5	..........a	-327.66
	1091	218.4	-4.09860E-001	-1.57814E-008	0.00000E+000	-4.10000E-001	9.97092E-004	5	..........a	-327.66
	1092	218.6	-3.99861E-001	-1.46065E-008	0.00000E+000	-4.00000E-001	9.98992E-004	5	..........a	-327.66
	1093	218.8	-3.89873E-001	-1.35282E-008	0.00000E+000	-3.90000E-001	1.02349E-003	5	..........a	-327.66
	1094	219	-3.79848E-001	-1.24520E-008	0.00000E+000	-3.80000E-001	1.00039E-003	5	..........a	-327.66
	1095	219.2	-3.69854E-001	-1.14621E-008	0.00000E+000	-3.70000E-001	1.00289E-003	5	..........a	-327.66
	1096	219.4	-3.59935E-001	-1.04411E-008	0.00000E+000	-3.60000E-001	1.01699E-003	5	..........a	-327.66
	1097	219.6	-3.49878E-001	-9.43821E-009	0.00000E+000	-3.50000E-001	1.02049E-003	5	..........a	-327.66
	1098	219.8	-3.39874E-001	-8.46774E-009	0.00000E+000	-3.40000E-001	9.96592E-004	5	..........a	-327.66
	1099	220	-3.29953E-001	-7.55749E-009	0.00000E+000	-3.30000E-001	1.01179E-003	5	..........a	-327.66
	1100	220.2	-3.19884E-001	-6.61963E-009	0.00000E+000	-3.20000E-001	9.92592E-004	5	..........a	-327.66
	1101	220.4	-3.09915E-001	-5.73512E-009	0.00000E+000	-3.10000E-001	1.00439E-003	5	..........a	-327.66
	1102	220.6	-2.99847E-001	-4.79750E-009	0.00000E+000	-3.00000E-001	1.01739E-003	5	..........a	-327.66
	1103	220.8	-2.89854E-001	-3.91960E-009	0.00000E+000	-2.90000E-001	1.01789E-003	5	..........a	-327.66
	1104	221	-2.79848E-001	-3.04888E-009	0.00000E+000	-2.80000E-001	1.01319E-003	5	..........a	-327.66
	1105	221.2	-2.69886E-001	-2.19962E-009	0.00000E+000	-2.70000E-001	1.02229E-003	5	..........a	-327.66
	1106	221.4	-2.59864E-001	-1.37699E-009	0.00000E+000	-2.60000E-001	9.96192E-004	5	..........a	-327.66
	1107	221.6	-2.49900E-001	-5.46634E-010	0.00000E+000	-2.50000E-001	1.00039E-003	5	..........a	-327.66
	1108	221.8	-2.39939E-001	3.04648E-010	0.00000E+000	-2.40000E-001	1.00469E-003	5	..........a	-327.66
	1109	222	-2.30012E-001	1.11891E-009	0.00000E+000	-2.30000E-001	1.00679E-003	5	..........a	-327.66
	1110	222.2	-2.19883E-001	1.91502E-009	0.00000E+000	-2.20000E-001	9.92292E-004	5	..........a	-327.66
	1111	222.4	-2.09987E-001	2.72056E-009	0.00000E+000	-2.10000E-001	1.02869E-003	5	..........a	-327.66
	1112	222.6	-1.99983E-001	3.53539E-009	0.00000E+000	-2.00000E-001	9.93692E-004	5	..........a	-327.66
	1113	222.8	-1.89904E-001	4.34705E-009	0.00000E+000	-1.90000E-001	1.00969E-003	5	..........a	-327.66
	1114	223	-1.79941E-001	5.08954E-009	0.00000E+000	-1.80000E-001	1.01149E-003	5	..........a	-327.66
	1115	223.2	-1.69910E-001	5.89523E-009	0.00000E+000	-1.70000E-001	1.00529E-003	5	..........a	-327.66
	1116	223.4	-1.60003E-001	6.67788E-009	0.00000E+000	-1.60000E-001	1.01079E-003	5	..........a	-327.66
	1117	223.6	-1.50074E-001	7.44687E-009	0.00000E+000	-1.50000E-001	1.01409E-003	5	..........a	-327.66
	1118	223.8	-1.39947E-001	8.19146E-009	0.00000E+000	-1.40000E-001	1.01479E-003	5	..........a	-327.66
	1119	224	-1.30015E-001	8.94640E-009	0.00000E+000	-1.30000E-001	1.01639E-003	5	..........a	-327.66
	1120	224.2	-1.19952E-001	9.68296E-009	0.00000E+000	-1.20000E-001	1.02809E-003	5	..........a	-327.66