Folder: GamryParser/data/raw/batch_data (part 3)

File: 20240321_W_GM0016_HL03_E06_CV50.DTA
EXPLAIN
TAG	CV
TITLE	LABEL	Cyclic Voltammetry	Test &Identifier
DATE	LABEL	3/21/2024	Date
TIME	LABEL	17:45:33	Time
NOTES	NOTES	1	&Notes...

PSTAT	PSTAT	REF600P-43058	Potentiostat
VINIT	POTEN	0.00000E+000	T	Initial &E (V)
VLIMIT1	POTEN	-6.00000E-001	F	Scan Limit &1 (V)
VLIMIT2	POTEN	8.00000E-001	F	Scan Limit &2 (V)
VFINAL	POTEN	0.00000E+000	T	Final &E (V)
SCANRATE	QUANT	4.99999E+001	&Scan Rate (mV/s)
STEPSIZE	QUANT	1.00000E+001	St&ep Size (mV)
CYCLES	IQUANT	4	C&ycles (#)
IMODE	SELECTOR	1	I/E Range &Mode
IRANGE	QUANT	1.00000E-005	&Max Current (mA)
AREA	QUANT	1.00000E+000	Electrode &Area (cm^2)
ELECTRODETYPE	SELECTOR	0	Electrode Type
STRIPPING	TOGGLE	F	Used for Stripping
POLARITY	TOGGLE	F	Signal Polarity
CONDIT	TWOPARAM	F	1.50000E+001	0.00000E+000	Conditionin&g	Time(s)	E(V)
DELAY	TWOPARAM	T	1.00000E+001	0.00000E+000	Init. De&lay	Time(s)	Stab.(mV/s)
EQDELAY	QUANT	1.00000E+001	Equil. &Time (s)
IRCOMP	SELECTOR	0	IRCom&p
PFCOR	QUANT	5.00000E+001	PF Corr. (ohm)
SAMPLINGMODE	SELECTOR	1	Sampling &Mode
OCVCURVE	TABLE	39
	Pt	T	Vf	Vm	Ach	Over	Temp
	#	s	V vs. Ref.	V	V	bits	deg C
	0	0.258333	3.76815E-001	3.76815E-001	2.69356E-004	..........a	-327.66
	1	0.516667	3.76819E-001	3.76993E-001	2.48022E-004	..........a	-327.66
	2	0.775	3.76845E-001	3.77455E-001	2.49756E-004	..........a	-327.66
	3	1.03333	3.76939E-001	3.77901E-001	2.34556E-004	..........a	-327.66
	4	1.29167	3.77144E-001	3.78435E-001	2.54089E-004	..........a	-327.66
	5	1.55	3.77471E-001	3.78823E-001	2.41289E-004	..........a	-327.66
	6	1.80833	3.77886E-001	3.79339E-001	2.42756E-004	..........a	-327.66
	7	2.06667	3.78347E-001	3.79982E-001	2.52422E-004	..........a	-327.66
	8	2.325	3.78834E-001	3.80278E-001	2.30622E-004	..........a	-327.66
	9	2.58333	3.79332E-001	3.80817E-001	2.49556E-004	..........a	-327.66
	10	2.84167	3.79826E-001	3.81429E-001	2.50289E-004	..........a	-327.66
	11	3.1	3.80317E-001	3.81769E-001	2.52089E-004	..........a	-327.66
	12	3.35833	3.80809E-001	3.82308E-001	2.43289E-004	..........a	-327.66
	13	3.61667	3.81298E-001	3.82737E-001	2.28956E-004	..........a	-327.66
	14	3.875	3.81778E-001	3.83289E-001	2.61889E-004	..........a	-327.66
	15	4.13333	3.82255E-001	3.83724E-001	2.30489E-004	..........a	-327.66
	16	4.39167	3.82735E-001	3.84212E-001	2.38289E-004	..........a	-327.66
	17	4.65	3.83219E-001	3.84823E-001	2.41689E-004	..........a	-327.66
	18	4.90833	3.83709E-001	3.85157E-001	2.24689E-004	..........a	-327.66
	19	5.16667	3.84204E-001	3.85692E-001	2.49489E-004	..........a	-327.66
	20	5.425	3.84695E-001	3.86289E-001	2.44222E-004	..........a	-327.66
	21	5.68333	3.85184E-001	3.86627E-001	2.47356E-004	..........a	-327.66
	22	5.94167	3.85675E-001	3.87136E-001	2.45289E-004	..........a	-327.66
	23	6.2	3.86159E-001	3.87614E-001	2.44956E-004	..........a	-327.66
	24	6.45833	3.86634E-001	3.88102E-001	2.54756E-004	..........a	-327.66
	25	6.71667	3.87105E-001	3.88563E-001	2.35089E-004	..........a	-327.66
	26	6.975	3.87579E-001	3.89028E-001	2.40489E-004	..........a	-327.66
	27	7.23333	3.88055E-001	3.89591E-001	2.28422E-004	..........a	-327.66
	28	7.49167	3.88533E-001	3.89936E-001	2.38956E-004	..........a	-327.66
	29	7.75	3.89012E-001	3.90472E-001	2.37289E-004	..........a	-327.66
	30	8.00833	3.89486E-001	3.90963E-001	2.33956E-004	..........a	-327.66
	31	8.26667	3.89957E-001	3.91391E-001	2.39089E-004	..........a	-327.66
	32	8.525	3.90429E-001	3.91852E-001	2.39222E-004	..........a	-327.66
	33	8.78333	3.90897E-001	3.92288E-001	2.32422E-004	..........a	-327.66
	34	9.04167	3.91360E-001	3.92837E-001	2.53022E-004	..........a	-327.66
	35	9.3	3.91821E-001	3.93226E-001	2.36756E-004	..........a	-327.66
	36	9.5583	3.92285E-001	3.93714E-001	2.41289E-004	..........a	-327.66
	37	9.8167	3.92751E-001	3.94201E-001	2.28022E-004	..........a	-327.66
	38	10.075	3.93216E-001	3.94617E-001	2.35222E-004	..........a	-327.66
EOC	QUANT	0.3932158	Open Circuit (V)
PSTATMODEL	IQUANT	7	Pstat Model
PSTATSECTION	LABEL	REF600P-43058	Pstat Section
PSTATSERIALNO	LABEL	43058	Pstat Serial Number
CTRLMODE	IQUANT	1	Control Mode
ELECTROMETER	IQUANT	0	RE=0 or CS=1
IESTAB	IQUANT	2	I/E Stability
CASPEED	IQUANT	4	Control Amp Speed
CONVENTION	IQUANT	1	Current Convention
ICHRANGE	IQUANT	2	Ich Range
ICHRANGEMODE	TOGGLE	F	Ich Auto Range
ICHOFFSETENABLE	TOGGLE	F	Ich Offset Enable
ICHOFFSET	QUANT	0	Ich Offset (V)
ICHFILTER	IQUANT	2	Ich Filter
VCHRANGE	IQUANT	2	Vch Range
VCHRANGEMODE	TOGGLE	F	Vch Auto Range
VCHOFFSETENABLE	TOGGLE	F	Vch Offset Enable
VCHOFFSET	QUANT	0	Vch Offset (V)
VCHFILTER	IQUANT	2	Vch Filter
ACHRANGE	IQUANT	2	Ach Range
ACHOFFSETENABLE	TOGGLE	F	Ach Offset Enable
ACHOFFSET	QUANT	0	Ach Offset (V)
ACHFILTER	IQUANT	1	Ach Filter
IERANGELOWERLIMIT	IQUANT	1	I/E Range Lower Limit
IERANGEMODE	TOGGLE	F	I/E AutoRange
IERANGE	IQUANT	4	I/E Range
POSFEEDENABLE	TOGGLE	F	Positive Feedback IR Comp
POSFEEDRESISTANCE	QUANT	0	Positive Feedback Resistance (ohm)
ACHSELECT	IQUANT	4	Ach Select
SENSECABLEID	IQUANT	7	Sense Cable ID
PWRCABLEID	IQUANT	7	Power Cable ID
DCCALDATE	LABEL	12/18/2023	DC Calibration Date
ACCALDATE	LABEL	12/18/2023	AC Calibration Date
THERMOSELECT	IQUANT	1	Thermo Select
FRAMEWORKVERSION	LABEL	7.8.4	Framework Version
INSTRUMENTVERSION	LABEL	4.42	Instrument Version
CURVE1	TABLE
	Pt	T	Vf	Im	Vu	Sig	Ach	IERange	Over	Temp
	#	s	V vs. Ref.	A	V	V	V	#	bits	deg C
	0	0.2	3.93186E-001	1.18653E-011	0.00000E+000	3.93200E-001	9.98022E-004	4	..........a	-327.66
	3	0.8	3.63194E-001	-3.01934E-011	0.00000E+000	3.63200E-001	9.89522E-004	4	..........a	-327.66
	6	1.4	3.33161E-001	-4.25858E-011	0.00000E+000	3.33200E-001	9.79222E-004	4	..........a	-327.66
	9	2	3.03224E-001	-5.35053E-011	0.00000E+000	3.03200E-001	1.01062E-003	4	..........a	-327.66
	12	2.6	2.73123E-001	-6.20246E-011	0.00000E+000	2.73200E-001	1.00232E-003	4	..........a	-327.66
	15	3.2	2.43224E-001	-6.93929E-011	0.00000E+000	2.43200E-001	9.98122E-004	4	..........a	-327.66
	18	3.8	2.13223E-001	-7.27590E-011	0.00000E+000	2.13200E-001	1.00622E-003	4	..........a	-327.66
	21	4.4	1.83255E-001	-7.69972E-011	0.00000E+000	1.83200E-001	9.87822E-004	4	..........a	-327.66
	24	5	1.53163E-001	-8.01353E-011	0.00000E+000	1.53200E-001	1.00062E-003	4	..........a	-327.66
	27	5.6	1.23229E-001	-8.22144E-011	0.00000E+000	1.23200E-001	1.00522E-003	4	..........a	-327.66
	30	6.2	9.32960E-002	-8.43915E-011	0.00000E+000	9.32000E-002	9.61322E-004	4	..........a	-327.66
	33	6.8	6.32644E-002	-8.63885E-011	0.00000E+000	6.32000E-002	9.94022E-004	4	..........a	-327.66
	36	7.4	3.32531E-002	-8.85356E-011	0.00000E+000	3.32000E-002	1.00132E-003	4	..........a	-327.66
	39	8	3.22869E-003	-9.38078E-011	0.00000E+000	3.20000E-003	9.94422E-004	4	..........a	-327.66
	42	8.6	-2.68246E-002	-9.75389E-011	0.00000E+000	-2.68000E-002	9.72522E-004	4	..........a	-327.66
	45	9.2	-5.67330E-002	-1.03054E-010	0.00000E+000	-5.68000E-002	9.98522E-004	4	..........a	-327.66
	48	9.8	-8.68631E-002	-1.12682E-010	0.00000E+000	-8.68000E-002	1.00342E-003	4	..........a	-327.66
	51	10.4	-1.16786E-001	-1.23788E-010	0.00000E+000	-1.16800E-001	9.94422E-004	4	..........a	-327.66
	54	11	-1.46791E-001	-1.37904E-010	0.00000E+000	-1.46800E-001	9.64422E-004	4	..........a	-327.66
	57	11.6	-1.76772E-001	-1.56432E-010	0.00000E+000	-1.76800E-001	1.00302E-003	4	..........a	-327.66
	60	12.2	-2.06805E-001	-1.78923E-010	0.00000E+000	-2.06800E-001	9.92822E-004	4	..........a	-327.66
[...]
	1085	217.2	7.39990E-001	6.52783E-011	0.00000E+000	7.40000E-001	1.00522E-003	4	..........a	-327.66
	1086	217.4	7.29954E-001	4.37375E-011	0.00000E+000	7.30000E-001	9.70122E-004	4	..........a	-327.66
	1087	217.6	7.19963E-001	2.60628E-011	0.00000E+000	7.20000E-001	1.00062E-003	4	..........a	-327.66
	1088	217.8	7.09903E-001	1.10802E-011	0.00000E+000	7.10000E-001	9.89722E-004	4	..........a	-327.66
	1089	218	6.99958E-001	-2.14728E-012	0.00000E+000	7.00000E-001	9.81922E-004	4	..........a	-327.66
	1090	218.2	6.89902E-001	-1.06116E-011	0.00000E+000	6.90000E-001	1.00082E-003	4	..........a	-327.66
	1091	218.4	6.79802E-001	-2.08080E-011	0.00000E+000	6.80000E-001	9.98522E-004	4	..........a	-327.66
	1092	218.6	6.69911E-001	-2.94633E-011	0.00000E+000	6.70000E-001	1.00292E-003	4	..........a	-327.66
	1093	218.8	6.60007E-001	-3.60336E-011	0.00000E+000	6.60000E-001	1.00532E-003	4	..........a	-327.66
	1094	219	6.49925E-001	-4.03588E-011	0.00000E+000	6.50000E-001	9.86022E-004	4	..........a	-327.66
	1095	219.2	6.39942E-001	-4.56110E-011	0.00000E+000	6.40000E-001	9.95922E-004	4	..........a	-327.66
	1096	219.4	6.29886E-001	-5.05581E-011	0.00000E+000	6.30000E-001	1.00212E-003	4	..........a	-327.66
	1097	219.6	6.19996E-001	-5.45043E-011	0.00000E+000	6.20000E-001	1.01472E-003	4	..........a	-327.66
	1098	219.8	6.09964E-001	-5.92095E-011	0.00000E+000	6.10000E-001	9.97822E-004	4	..........a	-327.66
	1099	220	5.99944E-001	-6.33396E-011	0.00000E+000	6.00000E-001	9.94622E-004	4	..........a	-327.66
	1100	220.2	5.89943E-001	-6.70948E-011	0.00000E+000	5.90000E-001	1.00072E-003	4	..........a	-327.66
	1101	220.4	5.80028E-001	-6.95769E-011	0.00000E+000	5.80000E-001	9.97022E-004	4	..........a	-327.66
	1102	220.6	5.69964E-001	-7.25620E-011	0.00000E+000	5.70000E-001	1.00382E-003	4	..........a	-327.66
	1103	220.8	5.59967E-001	-7.45521E-011	0.00000E+000	5.60000E-001	1.00122E-003	4	..........a	-327.66
	1104	221	5.49952E-001	-7.77812E-011	0.00000E+000	5.50000E-001	9.85522E-004	4	..........a	-327.66
	1105	221.2	5.40015E-001	-8.09753E-011	0.00000E+000	5.40000E-001	1.00892E-003	4	..........a	-327.66
	1106	221.4	5.29967E-001	-8.39524E-011	0.00000E+000	5.30000E-001	1.00492E-003	4	..........a	-327.66
	1107	221.6	5.19971E-001	-8.64575E-011	0.00000E+000	5.20000E-001	9.88122E-004	4	..........a	-327.66
	1108	221.8	5.09930E-001	-8.92726E-011	0.00000E+000	5.10000E-001	9.95622E-004	4	..........a	-327.66
	1109	222	5.00063E-001	-9.14527E-011	0.00000E+000	5.00000E-001	1.00812E-003	4	..........a	-327.66
	1110	222.2	4.89942E-001	-9.48048E-011	0.00000E+000	4.90000E-001	9.94122E-004	4	..........a	-327.66
	1111	222.4	4.79975E-001	-9.81470E-011	0.00000E+000	4.80000E-001	1.01452E-003	4	..........a	-327.66
	1112	222.6	4.69953E-001	-9.95890E-011	0.00000E+000	4.70000E-001	1.00952E-003	4	..........a	-327.66
	1113	222.8	4.60016E-001	-1.02334E-010	0.00000E+000	4.60000E-001	9.81522E-004	4	..........a	-327.66
	1114	223	4.49959E-001	-1.04793E-010	0.00000E+000	4.50000E-001	9.95222E-004	4	..........a	-327.66
	1115	223.2	4.39977E-001	-1.07392E-010	0.00000E+000	4.40000E-001	1.01232E-003	4	..........a	-327.66
	1116	223.4	4.29940E-001	-1.10488E-010	0.00000E+000	4.30000E-001	9.88022E-004	4	..........a	-327.66
	1117	223.6	4.20013E-001	-1.13138E-010	0.00000E+000	4.20000E-001	9.68322E-004	4	..........a	-327.66
	1118	223.8	4.09950E-001	-1.16279E-010	0.00000E+000	4.10000E-001	9.97222E-004	4	..........a	-327.66
	1119	224	4.00050E-001	-1.18483E-010	0.00000E+000	4.00000E-001	9.99322E-004	4	..........a	-327.66
	1120	224.2	3.89976E-001	-1.20733E-010	0.00000E+000	3.90000E-001	1.00082E-003	4	..........a	-327.66

File: 20240321_ZA_GM0016_HL03_E07_CV50.DTA
EXPLAIN
TAG	CV
TITLE	LABEL	Cyclic Voltammetry	Test &Identifier
DATE	LABEL	3/21/2024	Date
TIME	LABEL	17:59:49	Time
NOTES	NOTES	1	&Notes...

PSTAT	PSTAT	REF600P-43058	Potentiostat
VINIT	POTEN	0.00000E+000	T	Initial &E (V)
VLIMIT1	POTEN	-6.00000E-001	F	Scan Limit &1 (V)
VLIMIT2	POTEN	8.00000E-001	F	Scan Limit &2 (V)
VFINAL	POTEN	0.00000E+000	T	Final &E (V)
SCANRATE	QUANT	4.99999E+001	&Scan Rate (mV/s)
STEPSIZE	QUANT	1.00000E+001	St&ep Size (mV)
CYCLES	IQUANT	4	C&ycles (#)
IMODE	SELECTOR	1	I/E Range &Mode
IRANGE	QUANT	1.00000E-005	&Max Current (mA)
AREA	QUANT	1.00000E+000	Electrode &Area (cm^2)
ELECTRODETYPE	SELECTOR	0	Electrode Type
STRIPPING	TOGGLE	F	Used for Stripping
POLARITY	TOGGLE	F	Signal Polarity
CONDIT	TWOPARAM	F	1.50000E+001	0.00000E+000	Conditionin&g	Time(s)	E(V)
DELAY	TWOPARAM	T	1.00000E+001	0.00000E+000	Init. De&lay	Time(s)	Stab.(mV/s)
EQDELAY	QUANT	1.00000E+001	Equil. &Time (s)
IRCOMP	SELECTOR	0	IRCom&p
PFCOR	QUANT	5.00000E+001	PF Corr. (ohm)
SAMPLINGMODE	SELECTOR	1	Sampling &Mode
OCVCURVE	TABLE	39
	Pt	T	Vf	Vm	Ach	Over	Temp
	#	s	V vs. Ref.	V	V	bits	deg C
	0	0.258333	2.93081E-001	2.93081E-001	2.36022E-004	..........a	-327.66
	1	0.516667	2.93085E-001	2.93257E-001	2.32889E-004	..........a	-327.66
	2	0.775	2.93108E-001	2.93578E-001	2.40556E-004	..........a	-327.66
	3	1.03333	2.93185E-001	2.93878E-001	2.27556E-004	..........a	-327.66
	4	1.29167	2.93342E-001	2.94281E-001	2.27222E-004	..........a	-327.66
	5	1.55	2.93584E-001	2.94687E-001	2.45756E-004	..........a	-327.66
	6	1.80833	2.93899E-001	2.95187E-001	2.44356E-004	..........a	-327.66
	7	2.06667	2.94269E-001	2.95446E-001	2.34422E-004	..........a	-327.66
	8	2.325	2.94667E-001	2.95862E-001	2.25356E-004	..........a	-327.66
	9	2.58333	2.95063E-001	2.96064E-001	2.18689E-004	..........a	-327.66
	10	2.84167	2.95441E-001	2.96922E-001	2.39422E-004	..........a	-327.66
	11	3.1	2.95829E-001	2.97276E-001	2.37556E-004	..........a	-327.66
	12	3.35833	2.96264E-001	2.97771E-001	2.43222E-004	..........a	-327.66
	13	3.61667	2.96746E-001	2.98380E-001	2.38689E-004	..........a	-327.66
	14	3.875	2.97249E-001	2.98597E-001	2.28156E-004	..........a	-327.66
	15	4.13333	2.97743E-001	2.99096E-001	2.39822E-004	..........a	-327.66
	16	4.39167	2.98205E-001	2.99498E-001	2.35956E-004	..........a	-327.66
	17	4.65	2.98639E-001	3.00036E-001	2.49489E-004	..........a	-327.66
	18	4.90833	2.99066E-001	3.00352E-001	2.33356E-004	..........a	-327.66
	19	5.16667	2.99499E-001	3.00858E-001	2.43022E-004	..........a	-327.66
	20	5.425	2.99937E-001	3.01426E-001	2.35756E-004	..........a	-327.66
	21	5.68333	3.00385E-001	3.01720E-001	2.42489E-004	..........a	-327.66
	22	5.94167	3.00840E-001	3.02144E-001	2.36689E-004	..........a	-327.66
	23	6.2	3.01286E-001	3.02603E-001	2.35822E-004	..........a	-327.66
	24	6.45833	3.01718E-001	3.03177E-001	2.36022E-004	..........a	-327.66
	25	6.71667	3.02153E-001	3.03432E-001	2.35756E-004	..........a	-327.66
	26	6.975	3.02594E-001	3.03871E-001	2.39222E-004	..........a	-327.66
	27	7.23333	3.03026E-001	3.04279E-001	2.44222E-004	..........a	-327.66
	28	7.49167	3.03443E-001	3.04811E-001	2.50289E-004	..........a	-327.66
	29	7.75	3.03858E-001	3.05106E-001	2.43022E-004	..........a	-327.66
	30	8.00833	3.04279E-001	3.05576E-001	2.51889E-004	..........a	-327.66
	31	8.26667	3.04700E-001	3.05955E-001	2.32156E-004	..........a	-327.66
	32	8.525	3.05117E-001	3.06444E-001	2.47089E-004	..........a	-327.66
	33	8.78333	3.05532E-001	3.06755E-001	2.35556E-004	..........a	-327.66
	34	9.04167	3.05946E-001	3.07214E-001	2.44489E-004	..........a	-327.66
	35	9.3	3.06358E-001	3.07622E-001	2.36222E-004	..........a	-327.66
	36	9.5583	3.06767E-001	3.08069E-001	2.43156E-004	..........a	-327.66
	37	9.8167	3.07178E-001	3.08402E-001	2.34622E-004	..........a	-327.66
	38	10.075	3.07591E-001	3.08826E-001	2.46622E-004	..........a	-327.66
EOC	QUANT	0.3075907	Open Circuit (V)
PSTATMODEL	IQUANT	7	Pstat Model
PSTATSECTION	LABEL	REF600P-43058	Pstat Section
PSTATSERIALNO	LABEL	43058	Pstat Serial Number
CTRLMODE	IQUANT	1	Control Mode
ELECTROMETER	IQUANT	0	RE=0 or CS=1
IESTAB	IQUANT	2	I/E Stability
CASPEED	IQUANT	4	Control Amp Speed
CONVENTION	IQUANT	1	Current Convention
ICHRANGE	IQUANT	2	Ich Range
ICHRANGEMODE	TOGGLE	F	Ich Auto Range
ICHOFFSETENABLE	TOGGLE	F	Ich Offset Enable
ICHOFFSET	QUANT	0	Ich Offset (V)
ICHFILTER	IQUANT	2	Ich Filter
VCHRANGE	IQUANT	2	Vch Range
VCHRANGEMODE	TOGGLE	F	Vch Auto Range
VCHOFFSETENABLE	TOGGLE	F	Vch Offset Enable
VCHOFFSET	QUANT	0	Vch Offset (V)
VCHFILTER	IQUANT	2	Vch Filter
ACHRANGE	IQUANT	2	Ach Range
ACHOFFSETENABLE	TOGGLE	F	Ach Offset Enable
ACHOFFSET	QUANT	0	Ach Offset (V)
ACHFILTER	IQUANT	1	Ach Filter
IERANGELOWERLIMIT	IQUANT	1	I/E Range Lower Limit
IERANGEMODE	TOGGLE	F	I/E AutoRange
IERANGE	IQUANT	4	I/E Range
POSFEEDENABLE	TOGGLE	F	Positive Feedback IR Comp
POSFEEDRESISTANCE	QUANT	0	Positive Feedback Resistance (ohm)
ACHSELECT	IQUANT	4	Ach Select
SENSECABLEID	IQUANT	7	Sense Cable ID
PWRCABLEID	IQUANT	7	Power Cable ID
DCCALDATE	LABEL	12/18/2023	DC Calibration Date
ACCALDATE	LABEL	12/18/2023	AC Calibration Date
THERMOSELECT	IQUANT	1	Thermo Select
FRAMEWORKVERSION	LABEL	7.8.4	Framework Version
INSTRUMENTVERSION	LABEL	4.42	Instrument Version
CURVE1	TABLE
	Pt	T	Vf	Im	Vu	Sig	Ach	IERange	Over	Temp
	#	s	V vs. Ref.	A	V	V	V	#	bits	deg C
	0	0.2	3.07502E-001	1.62684E-011	0.00000E+000	3.07600E-001	9.75122E-004	4	..........a	-327.66
	3	0.8	2.77625E-001	-1.12056E-011	0.00000E+000	2.77600E-001	9.88922E-004	4	..........a	-327.66
	6	1.4	2.47597E-001	-2.38401E-011	0.00000E+000	2.47600E-001	9.99122E-004	4	..........a	-327.66
	9	2	2.17584E-001	-3.48655E-011	0.00000E+000	2.17600E-001	1.00372E-003	4	..........a	-327.66
	12	2.6	1.87684E-001	-4.01687E-011	0.00000E+000	1.87600E-001	9.88522E-004	4	..........a	-327.66
	15	3.2	1.57662E-001	-4.67150E-011	0.00000E+000	1.57600E-001	1.00062E-003	4	..........a	-327.66
	18	3.8	1.27611E-001	-5.27432E-011	0.00000E+000	1.27600E-001	1.00282E-003	4	..........a	-327.66
	21	4.4	9.76483E-002	-5.65894E-011	0.00000E+000	9.76000E-002	9.89322E-004	4	..........a	-327.66
	24	5	6.76920E-002	-6.38266E-011	0.00000E+000	6.76000E-002	9.64522E-004	4	..........a	-327.66
	27	5.6	3.76760E-002	-6.81538E-011	0.00000E+000	3.76000E-002	9.86522E-004	4	..........a	-327.66
	30	6.2	7.68834E-003	-7.23990E-011	0.00000E+000	7.60000E-003	1.00282E-003	4	..........a	-327.66
	33	6.8	-2.23804E-002	-7.99753E-011	0.00000E+000	-2.24000E-002	9.93522E-004	4	..........a	-327.66
	36	7.4	-5.23030E-002	-8.81426E-011	0.00000E+000	-5.24000E-002	9.97522E-004	4	..........a	-327.66
	39	8	-8.23130E-002	-9.66869E-011	0.00000E+000	-8.24000E-002	9.88422E-004	4	..........a	-327.66
	42	8.6	-1.12421E-001	-1.08078E-010	0.00000E+000	-1.12400E-001	9.87122E-004	4	..........a	-327.66
	45	9.2	-1.42366E-001	-1.20989E-010	0.00000E+000	-1.42400E-001	9.99322E-004	4	..........a	-327.66
	48	9.8	-1.72351E-001	-1.36006E-010	0.00000E+000	-1.72400E-001	9.88722E-004	4	..........a	-327.66
	51	10.4	-2.02357E-001	-1.52937E-010	0.00000E+000	-2.02400E-001	9.93722E-004	4	..........a	-327.66
	54	11	-2.32411E-001	-1.73148E-010	0.00000E+000	-2.32400E-001	1.00742E-003	4	..........a	-327.66
	57	11.6	-2.62412E-001	-1.96047E-010	0.00000E+000	-2.62400E-001	1.02372E-003	4	..........a	-327.66
	60	12.2	-2.92345E-001	-2.22833E-010	0.00000E+000	-2.92400E-001	9.96122E-004	4	..........a	-327.66
[...]
	1085	217.2	6.59988E-001	-2.42929E-012	0.00000E+000	6.60000E-001	9.76322E-004	4	..........a	-327.66
	1086	217.4	6.49931E-001	-7.69750E-012	0.00000E+000	6.50000E-001	9.54522E-004	4	..........a	-327.66
	1087	217.6	6.39819E-001	-1.40807E-011	0.00000E+000	6.40000E-001	9.96922E-004	4	..........a	-327.66
	1088	217.8	6.29919E-001	-1.97990E-011	0.00000E+000	6.30000E-001	9.79622E-004	4	..........a	-327.66
	1089	218	6.20004E-001	-2.41371E-011	0.00000E+000	6.20000E-001	1.00132E-003	4	..........a	-327.66
	1090	218.2	6.09958E-001	-3.00524E-011	0.00000E+000	6.10000E-001	9.56022E-004	4	..........a	-327.66
	1091	218.4	5.99964E-001	-3.50455E-011	0.00000E+000	6.00000E-001	9.83522E-004	4	..........a	-327.66
	1092	218.6	5.89964E-001	-3.75826E-011	0.00000E+000	5.90000E-001	9.70622E-004	4	..........a	-327.66
	1093	218.8	5.80045E-001	-4.06498E-011	0.00000E+000	5.80000E-001	9.90322E-004	4	..........a	-327.66
	1094	219	5.69934E-001	-4.52019E-011	0.00000E+000	5.70000E-001	9.77122E-004	4	..........a	-327.66
	1095	219.2	5.59997E-001	-4.89541E-011	0.00000E+000	5.60000E-001	9.79022E-004	4	..........a	-327.66
	1096	219.4	5.49959E-001	-5.20452E-011	0.00000E+000	5.50000E-001	9.66722E-004	4	..........a	-327.66
	1097	219.6	5.40027E-001	-5.49003E-011	0.00000E+000	5.40000E-001	9.97322E-004	4	..........a	-327.66
	1098	219.8	5.29972E-001	-5.83224E-011	0.00000E+000	5.30000E-001	9.90622E-004	4	..........a	-327.66
	1099	220	5.19955E-001	-6.16116E-011	0.00000E+000	5.20000E-001	9.82822E-004	4	..........a	-327.66
	1100	220.2	5.09924E-001	-6.53417E-011	0.00000E+000	5.10000E-001	9.93922E-004	4	..........a	-327.66
	1101	220.4	5.00035E-001	-6.86118E-011	0.00000E+000	5.00000E-001	9.78522E-004	4	..........a	-327.66
	1102	220.6	4.89970E-001	-7.20190E-011	0.00000E+000	4.90000E-001	9.71922E-004	4	..........a	-327.66
	1103	220.8	4.79918E-001	-7.48981E-011	0.00000E+000	4.80000E-001	9.91022E-004	4	..........a	-327.66
	1104	221	4.69946E-001	-7.76002E-011	0.00000E+000	4.70000E-001	9.87222E-004	4	..........a	-327.66
	1105	221.2	4.60015E-001	-8.04543E-011	0.00000E+000	4.60000E-001	9.88522E-004	4	..........a	-327.66
	1106	221.4	4.49994E-001	-8.43854E-011	0.00000E+000	4.50000E-001	9.83822E-004	4	..........a	-327.66
	1107	221.6	4.39951E-001	-8.74066E-011	0.00000E+000	4.40000E-001	9.96122E-004	4	..........a	-327.66
	1108	221.8	4.29949E-001	-8.99037E-011	0.00000E+000	4.30000E-001	9.85322E-004	4	..........a	-327.66
	1109	222	4.20014E-001	-9.30908E-011	0.00000E+000	4.20000E-001	9.85422E-004	4	..........a	-327.66
	1110	222.2	4.09895E-001	-9.66089E-011	0.00000E+000	4.10000E-001	9.77822E-004	4	..........a	-327.66
	1111	222.4	4.00056E-001	-1.00342E-010	0.00000E+000	4.00000E-001	9.83022E-004	4	..........a	-327.66
	1112	222.6	3.89999E-001	-1.02875E-010	0.00000E+000	3.90000E-001	9.93422E-004	4	..........a	-327.66
	1113	222.8	3.80028E-001	-1.05100E-010	0.00000E+000	3.80000E-001	9.91522E-004	4	..........a	-327.66
	1114	223	3.69992E-001	-1.08450E-010	0.00000E+000	3.70000E-001	9.84622E-004	4	..........a	-327.66
	1115	223.2	3.60007E-001	-1.12213E-010	0.00000E+000	3.60000E-001	9.93022E-004	4	..........a	-327.66
	1116	223.4	3.49958E-001	-1.15186E-010	0.00000E+000	3.50000E-001	9.79522E-004	4	..........a	-327.66
	1117	223.6	3.40048E-001	-1.17906E-010	0.00000E+000	3.40000E-001	9.89722E-004	4	..........a	-327.66
	1118	223.8	3.30051E-001	-1.20934E-010	0.00000E+000	3.30000E-001	9.94822E-004	4	..........a	-327.66
	1119	224	3.19998E-001	-1.23206E-010	0.00000E+000	3.20000E-001	1.00082E-003	4	..........a	-327.66
	1120	224.2	3.09965E-001	-1.26177E-010	0.00000E+000	3.10000E-001	9.92722E-004	4	..........a	-327.66