Folder: GamryParser/data/raw/batch_data (part 4)

File: 20240321_ZE_GM0016_HL03_E08_CV50.DTA
EXPLAIN
TAG	CV
TITLE	LABEL	Cyclic Voltammetry	Test &Identifier
DATE	LABEL	3/21/2024	Date
TIME	LABEL	18:14:42	Time
NOTES	NOTES	1	&Notes...

PSTAT	PSTAT	REF600P-43058	Potentiostat
VINIT	POTEN	0.00000E+000	T	Initial &E (V)
VLIMIT1	POTEN	-6.00000E-001	F	Scan Limit &1 (V)
VLIMIT2	POTEN	8.00000E-001	F	Scan Limit &2 (V)
VFINAL	POTEN	0.00000E+000	T	Final &E (V)
SCANRATE	QUANT	4.99999E+001	&Scan Rate (mV/s)
STEPSIZE	QUANT	1.00000E+001	St&ep Size (mV)
CYCLES	IQUANT	4	C&ycles (#)
IMODE	SELECTOR	1	I/E Range &Mode
IRANGE	QUANT	1.00000E-005	&Max Current (mA)
AREA	QUANT	1.00000E+000	Electrode &Area (cm^2)
ELECTRODETYPE	SELECTOR	0	Electrode Type
STRIPPING	TOGGLE	F	Used for Stripping
POLARITY	TOGGLE	F	Signal Polarity
CONDIT	TWOPARAM	F	1.50000E+001	0.00000E+000	Conditionin&g	Time(s)	E(V)
DELAY	TWOPARAM	T	1.00000E+001	0.00000E+000	Init. De&lay	Time(s)	Stab.(mV/s)
EQDELAY	QUANT	1.00000E+001	Equil. &Time (s)
IRCOMP	SELECTOR	0	IRCom&p
PFCOR	QUANT	5.00000E+001	PF Corr. (ohm)
SAMPLINGMODE	SELECTOR	1	Sampling &Mode
OCVCURVE	TABLE	39
	Pt	T	Vf	Vm	Ach	Over	Temp
	#	s	V vs. Ref.	V	V	bits	deg C
	0	0.258333	2.64965E-001	2.64965E-001	2.39222E-004	..........a	-327.66
	1	0.516667	2.64980E-001	2.65759E-001	2.35689E-004	..........a	-327.66
	2	0.775	2.65076E-001	2.66688E-001	2.36622E-004	..........a	-327.66
	3	1.03333	2.65364E-001	2.67735E-001	2.27222E-004	..........a	-327.66
	4	1.29167	2.65912E-001	2.68757E-001	2.28622E-004	..........a	-327.66
	5	1.55	2.66699E-001	2.69751E-001	2.39422E-004	..........a	-327.66
	6	1.80833	2.67630E-001	2.70312E-001	2.17289E-004	..........a	-327.66
	7	2.06667	2.68601E-001	2.71910E-001	2.36089E-004	..........a	-327.66
	8	2.325	2.69580E-001	2.72907E-001	2.31356E-004	..........a	-327.66
	9	2.58333	2.70602E-001	2.74016E-001	2.25756E-004	..........a	-327.66
	10	2.84167	2.71685E-001	2.75040E-001	2.36556E-004	..........a	-327.66
	11	3.1	2.72793E-001	2.76095E-001	2.36422E-004	..........a	-327.66
	12	3.35833	2.73887E-001	2.77106E-001	2.30556E-004	..........a	-327.66
	13	3.61667	2.74955E-001	2.78122E-001	2.21689E-004	..........a	-327.66
	14	3.875	2.76000E-001	2.79216E-001	2.47089E-004	..........a	-327.66
	15	4.13333	2.77034E-001	2.80177E-001	2.30822E-004	..........a	-327.66
	16	4.39167	2.78064E-001	2.81148E-001	2.14822E-004	..........a	-327.66
	17	4.65	2.79088E-001	2.82313E-001	2.38222E-004	..........a	-327.66
	18	4.90833	2.80107E-001	2.83185E-001	2.40356E-004	..........a	-327.66
	19	5.16667	2.81125E-001	2.84169E-001	2.37289E-004	..........a	-327.66
	20	5.425	2.82134E-001	2.85175E-001	2.28822E-004	..........a	-327.66
	21	5.68333	2.83127E-001	2.86145E-001	2.16822E-004	..........a	-327.66
	22	5.94167	2.84112E-001	2.87206E-001	2.30556E-004	..........a	-327.66
	23	6.2	2.85098E-001	2.88120E-001	2.40822E-004	..........a	-327.66
	24	6.45833	2.86088E-001	2.89046E-001	2.32689E-004	..........a	-327.66
	25	6.71667	2.87071E-001	2.90029E-001	2.19022E-004	..........a	-327.66
	26	6.975	2.88038E-001	2.90973E-001	2.18022E-004	..........a	-327.66
	27	7.23333	2.88995E-001	2.91979E-001	2.31822E-004	..........a	-327.66
	28	7.49167	2.89953E-001	2.92901E-001	2.36422E-004	..........a	-327.66
	29	7.75	2.90914E-001	2.93823E-001	2.40156E-004	..........a	-327.66
	30	8.00833	2.91872E-001	2.94806E-001	2.36822E-004	..........a	-327.66
	31	8.26667	2.92820E-001	2.95576E-001	2.26889E-004	..........a	-327.66
	32	8.525	2.93752E-001	2.96490E-001	2.21022E-004	..........a	-327.66
	33	8.78333	2.94662E-001	2.97526E-001	2.35022E-004	..........a	-327.66
	34	9.04167	2.95565E-001	2.98425E-001	2.47489E-004	..........a	-327.66
	35	9.3	2.96480E-001	2.99323E-001	2.28422E-004	..........a	-327.66
	36	9.5583	2.97406E-001	3.00182E-001	2.39956E-004	..........a	-327.66
	37	9.8167	2.98328E-001	3.01079E-001	2.25689E-004	..........a	-327.66
	38	10.075	2.99233E-001	3.01938E-001	2.25556E-004	..........a	-327.66
EOC	QUANT	0.2992329	Open Circuit (V)
PSTATMODEL	IQUANT	7	Pstat Model
PSTATSECTION	LABEL	REF600P-43058	Pstat Section
PSTATSERIALNO	LABEL	43058	Pstat Serial Number
CTRLMODE	IQUANT	1	Control Mode
ELECTROMETER	IQUANT	0	RE=0 or CS=1
IESTAB	IQUANT	2	I/E Stability
CASPEED	IQUANT	4	Control Amp Speed
CONVENTION	IQUANT	1	Current Convention
ICHRANGE	IQUANT	2	Ich Range
ICHRANGEMODE	TOGGLE	F	Ich Auto Range
ICHOFFSETENABLE	TOGGLE	F	Ich Offset Enable
ICHOFFSET	QUANT	0	Ich Offset (V)
ICHFILTER	IQUANT	2	Ich Filter
VCHRANGE	IQUANT	2	Vch Range
VCHRANGEMODE	TOGGLE	F	Vch Auto Range
VCHOFFSETENABLE	TOGGLE	F	Vch Offset Enable
VCHOFFSET	QUANT	0	Vch Offset (V)
VCHFILTER	IQUANT	2	Vch Filter
ACHRANGE	IQUANT	2	Ach Range
ACHOFFSETENABLE	TOGGLE	F	Ach Offset Enable
ACHOFFSET	QUANT	0	Ach Offset (V)
ACHFILTER	IQUANT	1	Ach Filter
IERANGELOWERLIMIT	IQUANT	1	I/E Range Lower Limit
IERANGEMODE	TOGGLE	F	I/E AutoRange
IERANGE	IQUANT	4	I/E Range
POSFEEDENABLE	TOGGLE	F	Positive Feedback IR Comp
POSFEEDRESISTANCE	QUANT	0	Positive Feedback Resistance (ohm)
ACHSELECT	IQUANT	4	Ach Select
SENSECABLEID	IQUANT	7	Sense Cable ID
PWRCABLEID	IQUANT	7	Power Cable ID
DCCALDATE	LABEL	12/18/2023	DC Calibration Date
ACCALDATE	LABEL	12/18/2023	AC Calibration Date
THERMOSELECT	IQUANT	1	Thermo Select
FRAMEWORKVERSION	LABEL	7.8.4	Framework Version
INSTRUMENTVERSION	LABEL	4.42	Instrument Version
CURVE1	TABLE
	Pt	T	Vf	Im	Vu	Sig	Ach	IERange	Over	Temp
	#	s	V vs. Ref.	A	V	V	V	#	bits	deg C
	0	0.2	2.99245E-001	1.16182E-011	0.00000E+000	2.99250E-001	9.98322E-004	4	..........a	-327.66
	3	0.8	2.69243E-001	-1.79869E-011	0.00000E+000	2.69250E-001	9.87222E-004	4	..........a	-327.66
	6	1.4	2.39272E-001	-2.98824E-011	0.00000E+000	2.39250E-001	9.83622E-004	4	..........a	-327.66
	9	2	2.09247E-001	-3.69026E-011	0.00000E+000	2.09250E-001	9.94722E-004	4	..........a	-327.66
	12	2.6	1.79309E-001	-4.02477E-011	0.00000E+000	1.79250E-001	9.75922E-004	4	..........a	-327.66
	15	3.2	1.49311E-001	-4.49159E-011	0.00000E+000	1.49250E-001	9.74522E-004	4	..........a	-327.66
	18	3.8	1.19280E-001	-4.92601E-011	0.00000E+000	1.19250E-001	9.84622E-004	4	..........a	-327.66
	21	4.4	8.93115E-002	-5.31042E-011	0.00000E+000	8.92500E-002	9.78122E-004	4	..........a	-327.66
	24	5	5.93219E-002	-5.61824E-011	0.00000E+000	5.92500E-002	9.75922E-004	4	..........a	-327.66
	27	5.6	2.93646E-002	-6.09155E-011	0.00000E+000	2.92500E-002	9.61522E-004	4	..........a	-327.66
	30	6.2	-7.43609E-004	-6.62247E-011	0.00000E+000	-7.49998E-004	9.75922E-004	4	..........a	-327.66
	33	6.8	-3.06920E-002	-7.08159E-011	0.00000E+000	-3.07500E-002	9.64022E-004	4	..........a	-327.66
	36	7.4	-6.06739E-002	-7.79422E-011	0.00000E+000	-6.07500E-002	1.00052E-003	4	..........a	-327.66
	39	8	-9.06713E-002	-8.58975E-011	0.00000E+000	-9.07500E-002	9.62022E-004	4	..........a	-327.66
	42	8.6	-1.20663E-001	-9.52809E-011	0.00000E+000	-1.20750E-001	9.82422E-004	4	..........a	-327.66
	45	9.2	-1.50721E-001	-1.05818E-010	0.00000E+000	-1.50750E-001	9.78522E-004	4	..........a	-327.66
	48	9.8	-1.80717E-001	-1.19052E-010	0.00000E+000	-1.80750E-001	9.79722E-004	4	..........a	-327.66
	51	10.4	-2.10641E-001	-1.33668E-010	0.00000E+000	-2.10750E-001	9.67822E-004	4	..........a	-327.66
	54	11	-2.40690E-001	-1.49392E-010	0.00000E+000	-2.40750E-001	9.84222E-004	4	..........a	-327.66
	57	11.6	-2.70654E-001	-1.66167E-010	0.00000E+000	-2.70750E-001	1.00052E-003	4	..........a	-327.66
	60	12.2	-3.00683E-001	-1.86189E-010	0.00000E+000	-3.00750E-001	9.67122E-004	4	..........a	-327.66
[...]
	1085	217.2	6.49948E-001	-2.64942E-011	0.00000E+000	6.50000E-001	9.86222E-004	4	..........a	-327.66
	1086	217.4	6.39953E-001	-3.26525E-011	0.00000E+000	6.40000E-001	9.89622E-004	4	..........a	-327.66
	1087	217.6	6.29948E-001	-3.72356E-011	0.00000E+000	6.30000E-001	9.89222E-004	4	..........a	-327.66
	1088	217.8	6.19992E-001	-3.99287E-011	0.00000E+000	6.20000E-001	9.98622E-004	4	..........a	-327.66
	1089	218	6.09937E-001	-4.35579E-011	0.00000E+000	6.10000E-001	9.78922E-004	4	..........a	-327.66
	1090	218.2	5.99989E-001	-4.74920E-011	0.00000E+000	6.00000E-001	9.81322E-004	4	..........a	-327.66
	1091	218.4	5.89928E-001	-5.05871E-011	0.00000E+000	5.90000E-001	9.97822E-004	4	..........a	-327.66
	1092	218.6	5.80023E-001	-5.31482E-011	0.00000E+000	5.80000E-001	9.91922E-004	4	..........a	-327.66
	1093	218.8	5.69995E-001	-5.53863E-011	0.00000E+000	5.70000E-001	1.00322E-003	4	..........a	-327.66
	1094	219	5.59982E-001	-5.78534E-011	0.00000E+000	5.60000E-001	1.00342E-003	4	..........a	-327.66
	1095	219.2	5.49955E-001	-6.08595E-011	0.00000E+000	5.50000E-001	9.93722E-004	4	..........a	-327.66
	1096	219.4	5.40009E-001	-6.36006E-011	0.00000E+000	5.40000E-001	1.00372E-003	4	..........a	-327.66
	1097	219.6	5.29945E-001	-6.52697E-011	0.00000E+000	5.30000E-001	9.97922E-004	4	..........a	-327.66
	1098	219.8	5.19945E-001	-6.83408E-011	0.00000E+000	5.20000E-001	9.92122E-004	4	..........a	-327.66
	1099	220	5.09976E-001	-6.95259E-011	0.00000E+000	5.10000E-001	1.00372E-003	4	..........a	-327.66
	1100	220.2	5.00068E-001	-7.11899E-011	0.00000E+000	5.00000E-001	9.88822E-004	4	..........a	-327.66
	1101	220.4	4.89986E-001	-7.35390E-011	0.00000E+000	4.90000E-001	9.87422E-004	4	..........a	-327.66
	1102	220.6	4.79924E-001	-7.55071E-011	0.00000E+000	4.80000E-001	1.01152E-003	4	..........a	-327.66
	1103	220.8	4.69952E-001	-7.74392E-011	0.00000E+000	4.70000E-001	9.93822E-004	4	..........a	-327.66
	1104	221	4.60019E-001	-7.93302E-011	0.00000E+000	4.60000E-001	9.98522E-004	4	..........a	-327.66
	1105	221.2	4.49956E-001	-8.17243E-011	0.00000E+000	4.50000E-001	9.66622E-004	4	..........a	-327.66
	1106	221.4	4.39933E-001	-8.42304E-011	0.00000E+000	4.40000E-001	1.00022E-003	4	..........a	-327.66
	1107	221.6	4.29979E-001	-8.53865E-011	0.00000E+000	4.30000E-001	9.91722E-004	4	..........a	-327.66
	1108	221.8	4.20027E-001	-8.68605E-011	0.00000E+000	4.20000E-001	9.93122E-004	4	..........a	-327.66
	1109	222	4.09968E-001	-8.99957E-011	0.00000E+000	4.10000E-001	9.97622E-004	4	..........a	-327.66
	1110	222.2	4.00013E-001	-9.13597E-011	0.00000E+000	4.00000E-001	1.00282E-003	4	..........a	-327.66
	1111	222.4	3.89974E-001	-9.43178E-011	0.00000E+000	3.90000E-001	9.95322E-004	4	..........a	-327.66
	1112	222.6	3.80021E-001	-9.57129E-011	0.00000E+000	3.80000E-001	9.83522E-004	4	..........a	-327.66
	1113	222.8	3.70008E-001	-9.72559E-011	0.00000E+000	3.70000E-001	9.97222E-004	4	..........a	-327.66
	1114	223	3.60019E-001	-1.00127E-010	0.00000E+000	3.60000E-001	9.95122E-004	4	..........a	-327.66
	1115	223.2	3.50025E-001	-1.01750E-010	0.00000E+000	3.50000E-001	9.99822E-004	4	..........a	-327.66
	1116	223.4	3.40056E-001	-1.02406E-010	0.00000E+000	3.40000E-001	9.94022E-004	4	..........a	-327.66
	1117	223.6	3.30032E-001	-1.04325E-010	0.00000E+000	3.30000E-001	9.88822E-004	4	..........a	-327.66
	1118	223.8	3.20004E-001	-1.05846E-010	0.00000E+000	3.20000E-001	1.00132E-003	4	..........a	-327.66
	1119	224	3.09981E-001	-1.08159E-010	0.00000E+000	3.10000E-001	1.01202E-003	4	..........a	-327.66
	1120	224.2	3.00044E-001	-1.09458E-010	0.00000E+000	3.00000E-001	1.01992E-003	4	..........a	-327.66

File: 20240321_ZI_GM0016_HL03_E09_CV50.DTA
EXPLAIN
TAG	CV
TITLE	LABEL	Cyclic Voltammetry	Test &Identifier
DATE	LABEL	3/21/2024	Date
TIME	LABEL	18:27:21	Time
NOTES	NOTES	1	&Notes...

PSTAT	PSTAT	REF600P-43058	Potentiostat
VINIT	POTEN	0.00000E+000	T	Initial &E (V)
VLIMIT1	POTEN	-6.00000E-001	F	Scan Limit &1 (V)
VLIMIT2	POTEN	8.00000E-001	F	Scan Limit &2 (V)
VFINAL	POTEN	0.00000E+000	T	Final &E (V)
SCANRATE	QUANT	4.99999E+001	&Scan Rate (mV/s)
STEPSIZE	QUANT	1.00000E+001	St&ep Size (mV)
CYCLES	IQUANT	4	C&ycles (#)
IMODE	SELECTOR	1	I/E Range &Mode
IRANGE	QUANT	1.00000E-005	&Max Current (mA)
AREA	QUANT	1.00000E+000	Electrode &Area (cm^2)
ELECTRODETYPE	SELECTOR	0	Electrode Type
STRIPPING	TOGGLE	F	Used for Stripping
POLARITY	TOGGLE	F	Signal Polarity
CONDIT	TWOPARAM	F	1.50000E+001	0.00000E+000	Conditionin&g	Time(s)	E(V)
DELAY	TWOPARAM	T	1.00000E+001	0.00000E+000	Init. De&lay	Time(s)	Stab.(mV/s)
EQDELAY	QUANT	1.00000E+001	Equil. &Time (s)
IRCOMP	SELECTOR	0	IRCom&p
PFCOR	QUANT	5.00000E+001	PF Corr. (ohm)
SAMPLINGMODE	SELECTOR	1	Sampling &Mode
OCVCURVE	TABLE	39
	Pt	T	Vf	Vm	Ach	Over	Temp
	#	s	V vs. Ref.	V	V	bits	deg C
	0	0.258333	1.93430E-001	1.93430E-001	2.47356E-004	..........a	-327.66
	1	0.516667	1.93435E-001	1.93656E-001	2.57822E-004	..........a	-327.66
	2	0.775	1.93465E-001	1.94074E-001	2.63622E-004	..........a	-327.66
	3	1.03333	1.93566E-001	1.94579E-001	2.63422E-004	..........a	-327.66
	4	1.29167	1.93781E-001	1.95135E-001	2.52956E-004	..........a	-327.66
	5	1.55	1.94126E-001	1.95733E-001	2.42156E-004	..........a	-327.66
	6	1.80833	1.94581E-001	1.96344E-001	2.52089E-004	..........a	-327.66
	7	2.06667	1.95113E-001	1.96957E-001	2.60089E-004	..........a	-327.66
	8	2.325	1.95692E-001	1.97575E-001	2.49822E-004	..........a	-327.66
	9	2.58333	1.96295E-001	1.98203E-001	2.49422E-004	..........a	-327.66
	10	2.84167	1.96910E-001	1.98828E-001	2.50756E-004	..........a	-327.66
	11	3.1	1.97530E-001	1.99454E-001	2.56089E-004	..........a	-327.66
	12	3.35833	1.98154E-001	2.00077E-001	2.55889E-004	..........a	-327.66
	13	3.61667	1.98779E-001	2.00693E-001	2.40822E-004	..........a	-327.66
	14	3.875	1.99403E-001	2.01320E-001	2.62756E-004	..........a	-327.66
	15	4.13333	2.00026E-001	2.01933E-001	2.58889E-004	..........a	-327.66
	16	4.39167	2.00647E-001	2.02554E-001	2.69756E-004	..........a	-327.66
	17	4.65	2.01268E-001	2.03170E-001	2.57889E-004	..........a	-327.66
	18	4.90833	2.01887E-001	2.03783E-001	2.69889E-004	..........a	-327.66
	19	5.16667	2.02504E-001	2.04379E-001	2.71356E-004	..........a	-327.66
	20	5.425	2.03118E-001	2.04988E-001	2.44422E-004	..........a	-327.66
	21	5.68333	2.03729E-001	2.05593E-001	2.54889E-004	..........a	-327.66
	22	5.94167	2.04335E-001	2.06178E-001	2.56489E-004	..........a	-327.66
	23	6.2	2.04939E-001	2.06803E-001	2.57822E-004	..........a	-327.66
	24	6.45833	2.05542E-001	2.07405E-001	2.61889E-004	..........a	-327.66
	25	6.71667	2.06145E-001	2.08003E-001	2.54689E-004	..........a	-327.66
	26	6.975	2.06749E-001	2.08596E-001	2.48756E-004	..........a	-327.66
	27	7.23333	2.07353E-001	2.09196E-001	2.67956E-004	..........a	-327.66
	28	7.49167	2.07953E-001	2.09786E-001	2.70556E-004	..........a	-327.66
	29	7.75	2.08551E-001	2.10363E-001	2.63556E-004	..........a	-327.66
	30	8.00833	2.09144E-001	2.10954E-001	2.53956E-004	..........a	-327.66
	31	8.26667	2.09734E-001	2.11535E-001	2.67756E-004	..........a	-327.66
	32	8.525	2.10321E-001	2.12111E-001	2.59022E-004	..........a	-327.66
	33	8.78333	2.10905E-001	2.12693E-001	2.47089E-004	..........a	-327.66
	34	9.04167	2.11487E-001	2.13267E-001	2.54422E-004	..........a	-327.66
	35	9.3	2.12067E-001	2.13835E-001	2.46756E-004	..........a	-327.66
	36	9.5583	2.12644E-001	2.14411E-001	2.62556E-004	..........a	-327.66
	37	9.8167	2.13219E-001	2.14975E-001	2.63889E-004	..........a	-327.66
	38	10.075	2.13792E-001	2.15543E-001	2.48622E-004	..........a	-327.66
EOC	QUANT	0.2137918	Open Circuit (V)
PSTATMODEL	IQUANT	7	Pstat Model
PSTATSECTION	LABEL	REF600P-43058	Pstat Section
PSTATSERIALNO	LABEL	43058	Pstat Serial Number
CTRLMODE	IQUANT	1	Control Mode
ELECTROMETER	IQUANT	0	RE=0 or CS=1
IESTAB	IQUANT	2	I/E Stability
CASPEED	IQUANT	4	Control Amp Speed
CONVENTION	IQUANT	1	Current Convention
ICHRANGE	IQUANT	2	Ich Range
ICHRANGEMODE	TOGGLE	F	Ich Auto Range
ICHOFFSETENABLE	TOGGLE	F	Ich Offset Enable
ICHOFFSET	QUANT	0	Ich Offset (V)
ICHFILTER	IQUANT	2	Ich Filter
VCHRANGE	IQUANT	2	Vch Range
VCHRANGEMODE	TOGGLE	F	Vch Auto Range
VCHOFFSETENABLE	TOGGLE	F	Vch Offset Enable
VCHOFFSET	QUANT	0	Vch Offset (V)
VCHFILTER	IQUANT	2	Vch Filter
ACHRANGE	IQUANT	2	Ach Range
ACHOFFSETENABLE	TOGGLE	F	Ach Offset Enable
ACHOFFSET	QUANT	0	Ach Offset (V)
ACHFILTER	IQUANT	1	Ach Filter
IERANGELOWERLIMIT	IQUANT	1	I/E Range Lower Limit
IERANGEMODE	TOGGLE	F	I/E AutoRange
IERANGE	IQUANT	4	I/E Range
POSFEEDENABLE	TOGGLE	F	Positive Feedback IR Comp
POSFEEDRESISTANCE	QUANT	0	Positive Feedback Resistance (ohm)
ACHSELECT	IQUANT	4	Ach Select
SENSECABLEID	IQUANT	7	Sense Cable ID
PWRCABLEID	IQUANT	7	Power Cable ID
DCCALDATE	LABEL	12/18/2023	DC Calibration Date
ACCALDATE	LABEL	12/18/2023	AC Calibration Date
THERMOSELECT	IQUANT	1	Thermo Select
FRAMEWORKVERSION	LABEL	7.8.4	Framework Version
INSTRUMENTVERSION	LABEL	4.42	Instrument Version
CURVE1	TABLE
	Pt	T	Vf	Im	Vu	Sig	Ach	IERange	Over	Temp
	#	s	V vs. Ref.	A	V	V	V	#	bits	deg C
	0	0.2	2.13809E-001	1.51444E-011	0.00000E+000	2.13800E-001	9.97122E-004	4	..........a	-327.66
	3	0.8	1.83855E-001	-2.79473E-011	0.00000E+000	1.83800E-001	1.03852E-003	4	..........a	-327.66
	6	1.4	1.53826E-001	-5.13772E-011	0.00000E+000	1.53800E-001	1.02202E-003	4	..........a	-327.66
	9	2	1.23950E-001	-6.80598E-011	0.00000E+000	1.23800E-001	1.00112E-003	4	..........a	-327.66
	12	2.6	9.38409E-002	-8.24274E-011	0.00000E+000	9.38000E-002	9.89722E-004	4	..........a	-327.66
	15	3.2	6.38377E-002	-9.51599E-011	0.00000E+000	6.38000E-002	9.96422E-004	4	..........a	-327.66
	18	3.8	3.38553E-002	-1.07448E-010	0.00000E+000	3.38000E-002	9.81822E-004	4	..........a	-327.66
	21	4.4	3.97239E-003	-1.19503E-010	0.00000E+000	3.80000E-003	1.00622E-003	4	..........a	-327.66
	24	5	-2.61690E-002	-1.31950E-010	0.00000E+000	-2.62000E-002	1.01542E-003	4	..........a	-327.66
	27	5.6	-5.61012E-002	-1.46455E-010	0.00000E+000	-5.62000E-002	1.01202E-003	4	..........a	-327.66
	30	6.2	-8.61653E-002	-1.60738E-010	0.00000E+000	-8.62000E-002	9.94722E-004	4	..........a	-327.66
	33	6.8	-1.16137E-001	-1.75992E-010	0.00000E+000	-1.16200E-001	9.84722E-004	4	..........a	-327.66
	36	7.4	-1.46176E-001	-1.93900E-010	0.00000E+000	-1.46200E-001	1.00082E-003	4	..........a	-327.66
	39	8	-1.76217E-001	-2.12788E-010	0.00000E+000	-1.76200E-001	1.01082E-003	4	..........a	-327.66
	42	8.6	-2.06128E-001	-2.32790E-010	0.00000E+000	-2.06200E-001	1.00382E-003	4	..........a	-327.66
	45	9.2	-2.36009E-001	-2.55453E-010	0.00000E+000	-2.36200E-001	1.02072E-003	4	..........a	-327.66
	48	9.8	-2.66100E-001	-2.83061E-010	0.00000E+000	-2.66200E-001	9.96722E-004	4	..........a	-327.66
	51	10.4	-2.96094E-001	-3.09051E-010	0.00000E+000	-2.96200E-001	9.94122E-004	4	..........a	-327.66
	54	11	-3.26140E-001	-3.38981E-010	0.00000E+000	-3.26200E-001	1.00272E-003	4	..........a	-327.66
	57	11.6	-3.56086E-001	-3.73691E-010	0.00000E+000	-3.56200E-001	1.02022E-003	4	..........a	-327.66
	60	12.2	-3.86106E-001	-4.13591E-010	0.00000E+000	-3.86200E-001	1.00262E-003	4	..........a	-327.66
[...]
	1085	217.2	5.60007E-001	-4.05788E-011	0.00000E+000	5.60000E-001	1.01542E-003	4	..........a	-327.66
	1086	217.4	5.49953E-001	-4.72000E-011	0.00000E+000	5.50000E-001	9.94622E-004	4	..........a	-327.66
	1087	217.6	5.40032E-001	-5.40103E-011	0.00000E+000	5.40000E-001	9.89522E-004	4	..........a	-327.66
	1088	217.8	5.29986E-001	-5.90645E-011	0.00000E+000	5.30000E-001	9.97622E-004	4	..........a	-327.66
	1089	218	5.19951E-001	-6.55487E-011	0.00000E+000	5.20000E-001	1.00942E-003	4	..........a	-327.66
	1090	218.2	5.09974E-001	-6.99389E-011	0.00000E+000	5.10000E-001	1.02502E-003	4	..........a	-327.66
	1091	218.4	5.00087E-001	-7.48061E-011	0.00000E+000	5.00000E-001	1.02902E-003	4	..........a	-327.66
	1092	218.6	4.89939E-001	-8.12453E-011	0.00000E+000	4.90000E-001	1.01762E-003	4	..........a	-327.66
	1093	218.8	4.79915E-001	-8.59935E-011	0.00000E+000	4.80000E-001	1.02132E-003	4	..........a	-327.66
	1094	219	4.69971E-001	-9.00256E-011	0.00000E+000	4.70000E-001	1.01072E-003	4	..........a	-327.66
	1095	219.2	4.60002E-001	-9.70189E-011	0.00000E+000	4.60000E-001	1.02782E-003	4	..........a	-327.66
	1096	219.4	4.50020E-001	-1.01140E-010	0.00000E+000	4.50000E-001	1.00812E-003	4	..........a	-327.66
	1097	219.6	4.39989E-001	-1.05645E-010	0.00000E+000	4.40000E-001	9.94822E-004	4	..........a	-327.66
	1098	219.8	4.29923E-001	-1.10592E-010	0.00000E+000	4.30000E-001	1.00172E-003	4	..........a	-327.66
	1099	220	4.20026E-001	-1.15467E-010	0.00000E+000	4.20000E-001	1.01442E-003	4	..........a	-327.66
	1100	220.2	4.09993E-001	-1.19836E-010	0.00000E+000	4.10000E-001	9.82422E-004	4	..........a	-327.66
	1101	220.4	4.00022E-001	-1.24382E-010	0.00000E+000	4.00000E-001	1.01052E-003	4	..........a	-327.66
	1102	220.6	3.89945E-001	-1.27924E-010	0.00000E+000	3.90000E-001	1.01672E-003	4	..........a	-327.66
	1103	220.8	3.80016E-001	-1.33329E-010	0.00000E+000	3.80000E-001	1.01792E-003	4	..........a	-327.66
	1104	221	3.70018E-001	-1.36960E-010	0.00000E+000	3.70000E-001	9.91022E-004	4	..........a	-327.66
	1105	221.2	3.59876E-001	-1.41904E-010	0.00000E+000	3.60000E-001	1.00302E-003	4	..........a	-327.66
	1106	221.4	3.49979E-001	-1.46096E-010	0.00000E+000	3.50000E-001	1.03122E-003	4	..........a	-327.66
	1107	221.6	3.40057E-001	-1.49988E-010	0.00000E+000	3.40000E-001	1.01702E-003	4	..........a	-327.66
	1108	221.8	3.30050E-001	-1.54324E-010	0.00000E+000	3.30000E-001	9.89122E-004	4	..........a	-327.66
	1109	222	3.20002E-001	-1.58676E-010	0.00000E+000	3.20000E-001	1.00752E-003	4	..........a	-327.66
	1110	222.2	3.09971E-001	-1.61995E-010	0.00000E+000	3.10000E-001	9.95022E-004	4	..........a	-327.66
	1111	222.4	3.00027E-001	-1.65382E-010	0.00000E+000	3.00000E-001	1.03612E-003	4	..........a	-327.66
	1112	222.6	2.90017E-001	-1.68851E-010	0.00000E+000	2.90000E-001	1.00382E-003	4	..........a	-327.66
	1113	222.8	2.79993E-001	-1.72025E-010	0.00000E+000	2.80000E-001	1.02152E-003	4	..........a	-327.66
	1114	223	2.69967E-001	-1.75253E-010	0.00000E+000	2.70000E-001	1.00032E-003	4	..........a	-327.66
	1115	223.2	2.60026E-001	-1.78863E-010	0.00000E+000	2.60000E-001	1.02232E-003	4	..........a	-327.66
	1116	223.4	2.50071E-001	-1.81100E-010	0.00000E+000	2.50000E-001	1.01732E-003	4	..........a	-327.66
	1117	223.6	2.39990E-001	-1.84030E-010	0.00000E+000	2.40000E-001	1.02192E-003	4	..........a	-327.66
	1118	223.8	2.29964E-001	-1.86467E-010	0.00000E+000	2.30000E-001	1.00852E-003	4	..........a	-327.66
	1119	224	2.19963E-001	-1.89296E-010	0.00000E+000	2.20000E-001	1.01382E-003	4	..........a	-327.66
	1120	224.2	2.09987E-001	-1.90425E-010	0.00000E+000	2.10000E-001	1.00632E-003	4	..........a	-327.66