Folder: GamryParser/data/raw/batch_data (part 5)

File: 20240321_ZN_GM0016_HL03_E10_CV50k.DTA
EXPLAIN
TAG	CV
TITLE	LABEL	Cyclic Voltammetry	Test &Identifier
DATE	LABEL	3/21/2024	Date
TIME	LABEL	18:46:02	Time
NOTES	NOTES	1	&Notes...

PSTAT	PSTAT	REF600P-43058	Potentiostat
VINIT	POTEN	0.00000E+000	T	Initial &E (V)
VLIMIT1	POTEN	-6.00000E-001	F	Scan Limit &1 (V)
VLIMIT2	POTEN	8.00000E-001	F	Scan Limit &2 (V)
VFINAL	POTEN	0.00000E+000	T	Final &E (V)
SCANRATE	QUANT	4.99999E+004	&Scan Rate (mV/s)
STEPSIZE	QUANT	1.00000E+001	St&ep Size (mV)
CYCLES	IQUANT	10	C&ycles (#)
IMODE	SELECTOR	1	I/E Range &Mode
IRANGE	QUANT	1.00000E-005	&Max Current (mA)
AREA	QUANT	1.00000E+000	Electrode &Area (cm^2)
ELECTRODETYPE	SELECTOR	0	Electrode Type
STRIPPING	TOGGLE	F	Used for Stripping
POLARITY	TOGGLE	F	Signal Polarity
CONDIT	TWOPARAM	F	1.50000E+001	0.00000E+000	Conditionin&g	Time(s)	E(V)
DELAY	TWOPARAM	T	1.00000E+001	0.00000E+000	Init. De&lay	Time(s)	Stab.(mV/s)
EQDELAY	QUANT	1.00000E+001	Equil. &Time (s)
IRCOMP	SELECTOR	0	IRCom&p
PFCOR	QUANT	5.00000E+001	PF Corr. (ohm)
SAMPLINGMODE	SELECTOR	1	Sampling &Mode
OCVCURVE	TABLE	39
	Pt	T	Vf	Vm	Ach	Over	Temp
	#	s	V vs. Ref.	V	V	bits	deg C
	0	0.258333	4.55194E-001	4.55194E-001	2.76622E-004	..........a	-327.66
	1	0.516667	4.55196E-001	4.55266E-001	2.66956E-004	..........a	-327.66
	2	0.775	4.55207E-001	4.55461E-001	2.62422E-004	..........a	-327.66
	3	1.03333	4.55246E-001	4.55683E-001	2.50356E-004	..........a	-327.66
	4	1.29167	4.55336E-001	4.55954E-001	2.69289E-004	..........a	-327.66
	5	1.55	4.55486E-001	4.56160E-001	2.53222E-004	..........a	-327.66
	6	1.80833	4.55686E-001	4.56432E-001	2.42822E-004	..........a	-327.66
	7	2.06667	4.55917E-001	4.56790E-001	2.70022E-004	..........a	-327.66
	8	2.325	4.56167E-001	4.56844E-001	2.69822E-004	..........a	-327.66
	9	2.58333	4.56420E-001	4.57047E-001	2.60422E-004	..........a	-327.66
	10	2.84167	4.56654E-001	4.57283E-001	2.63622E-004	..........a	-327.66
	11	3.1	4.56864E-001	4.57552E-001	2.71156E-004	..........a	-327.66
	12	3.35833	4.57069E-001	4.57765E-001	2.69289E-004	..........a	-327.66
	13	3.61667	4.57286E-001	4.58014E-001	2.63956E-004	..........a	-327.66
	14	3.875	4.57519E-001	4.58385E-001	2.65756E-004	..........a	-327.66
	15	4.13333	4.57766E-001	4.58433E-001	2.79756E-004	..........a	-327.66
	16	4.39167	4.58015E-001	4.58637E-001	2.67889E-004	..........a	-327.66
	17	4.65	4.58246E-001	4.58873E-001	2.53556E-004	..........a	-327.66
	18	4.90833	4.58454E-001	4.59142E-001	2.66022E-004	..........a	-327.66
	19	5.16667	4.58659E-001	4.59348E-001	2.67956E-004	..........a	-327.66
	20	5.425	4.58875E-001	4.59548E-001	2.48022E-004	..........a	-327.66
	21	5.68333	4.59101E-001	4.59943E-001	2.56089E-004	..........a	-327.66
	22	5.94167	4.59339E-001	4.60053E-001	2.64022E-004	..........a	-327.66
	23	6.2	4.59583E-001	4.60211E-001	2.64756E-004	..........a	-327.66
	24	6.45833	4.59817E-001	4.60403E-001	2.70956E-004	..........a	-327.66
	25	6.71667	4.60028E-001	4.60690E-001	2.61289E-004	..........a	-327.66
	26	6.975	4.60227E-001	4.60884E-001	2.54489E-004	..........a	-327.66
	27	7.23333	4.60431E-001	4.61071E-001	2.49889E-004	..........a	-327.66
	28	7.49167	4.60646E-001	4.61449E-001	2.62622E-004	..........a	-327.66
	29	7.75	4.60874E-001	4.61631E-001	2.68889E-004	..........a	-327.66
	30	8.00833	4.61115E-001	4.61779E-001	2.47489E-004	..........a	-327.66
	31	8.26667	4.61355E-001	4.61959E-001	2.58822E-004	..........a	-327.66
	32	8.525	4.61576E-001	4.62208E-001	2.51489E-004	..........a	-327.66
	33	8.78333	4.61779E-001	4.62424E-001	2.66556E-004	..........a	-327.66
	34	9.04167	4.61980E-001	4.62639E-001	2.51689E-004	..........a	-327.66
	35	9.3	4.62189E-001	4.62905E-001	2.57356E-004	..........a	-327.66
	36	9.5583	4.62411E-001	4.63204E-001	2.58956E-004	..........a	-327.66
	37	9.8167	4.62645E-001	4.63302E-001	2.67622E-004	..........a	-327.66
	38	10.075	4.62882E-001	4.63475E-001	2.62022E-004	..........a	-327.66
EOC	QUANT	0.4628818	Open Circuit (V)
PSTATMODEL	IQUANT	7	Pstat Model
PSTATSECTION	LABEL	REF600P-43058	Pstat Section
PSTATSERIALNO	LABEL	43058	Pstat Serial Number
CTRLMODE	IQUANT	1	Control Mode
ELECTROMETER	IQUANT	0	RE=0 or CS=1
IESTAB	IQUANT	2	I/E Stability
CASPEED	IQUANT	4	Control Amp Speed
CONVENTION	IQUANT	1	Current Convention
ICHRANGE	IQUANT	2	Ich Range
ICHRANGEMODE	TOGGLE	F	Ich Auto Range
ICHOFFSETENABLE	TOGGLE	F	Ich Offset Enable
ICHOFFSET	QUANT	0	Ich Offset (V)
ICHFILTER	IQUANT	1	Ich Filter
VCHRANGE	IQUANT	2	Vch Range
VCHRANGEMODE	TOGGLE	F	Vch Auto Range
VCHOFFSETENABLE	TOGGLE	F	Vch Offset Enable
VCHOFFSET	QUANT	0	Vch Offset (V)
VCHFILTER	IQUANT	1	Vch Filter
ACHRANGE	IQUANT	2	Ach Range
ACHOFFSETENABLE	TOGGLE	F	Ach Offset Enable
ACHOFFSET	QUANT	0	Ach Offset (V)
ACHFILTER	IQUANT	1	Ach Filter
IERANGELOWERLIMIT	IQUANT	1	I/E Range Lower Limit
IERANGEMODE	TOGGLE	F	I/E AutoRange
IERANGE	IQUANT	4	I/E Range
POSFEEDENABLE	TOGGLE	F	Positive Feedback IR Comp
POSFEEDRESISTANCE	QUANT	0	Positive Feedback Resistance (ohm)
ACHSELECT	IQUANT	4	Ach Select
SENSECABLEID	IQUANT	7	Sense Cable ID
PWRCABLEID	IQUANT	7	Power Cable ID
DCCALDATE	LABEL	12/18/2023	DC Calibration Date
ACCALDATE	LABEL	12/18/2023	AC Calibration Date
THERMOSELECT	IQUANT	1	Thermo Select
FRAMEWORKVERSION	LABEL	7.8.4	Framework Version
INSTRUMENTVERSION	LABEL	4.42	Instrument Version
CURVE1	TABLE
	Pt	T	Vf	Im	Vu	Sig	Ach	IERange	Over	Temp
	#	s	V vs. Ref.	A	V	V	V	#	bits	deg C
	0	0.0002	4.62870E-001	1.77883E-011	0.00000E+000	4.62900E-001	8.00223E-005	4	..........a	-327.66
	3	0.0008	4.32970E-001	-1.13217E-010	0.00000E+000	4.32900E-001	8.00223E-005	4	..........a	-327.66
	6	0.0014	4.02870E-001	-2.63222E-010	0.00000E+000	4.02900E-001	8.00223E-005	4	..........a	-327.66
	9	0.002	3.72820E-001	-4.35229E-010	0.00000E+000	3.72900E-001	8.00223E-005	4	..........a	-327.66
	12	0.0026	3.42870E-001	-6.23236E-010	0.00000E+000	3.42900E-001	-3.19978E-004	4	..........a	-327.66
	15	0.0032	3.13020E-001	-8.26244E-010	0.00000E+000	3.12900E-001	8.00223E-005	4	..........a	-327.66
	18	0.0038	2.82870E-001	-1.05825E-009	0.00000E+000	2.82900E-001	8.00223E-005	4	..........a	-327.66
	21	0.0044	2.52970E-001	-1.31426E-009	0.00000E+000	2.52900E-001	8.00223E-005	4	..........a	-327.66
	24	0.005	2.22870E-001	-1.58627E-009	0.00000E+000	2.22900E-001	8.00223E-005	4	..........a	-327.66
	27	0.0056	1.93170E-001	-1.88828E-009	0.00000E+000	1.92900E-001	8.00223E-005	4	..........a	-327.66
	30	0.0062	1.62870E-001	-2.25030E-009	0.00000E+000	1.62900E-001	8.00223E-005	4	..........a	-327.66
	33	0.0068	1.32970E-001	-2.63731E-009	0.00000E+000	1.32900E-001	8.00223E-005	4	..........a	-327.66
	36	0.0074	1.02970E-001	-3.07633E-009	0.00000E+000	1.02900E-001	8.00223E-005	4	..........a	-327.66
	39	0.008	7.30695E-002	-3.55835E-009	0.00000E+000	7.29000E-002	8.00223E-005	4	..........a	-327.66
	42	0.0086	4.28695E-002	-4.09037E-009	0.00000E+000	4.29000E-002	8.00223E-005	4	..........a	-327.66
	45	0.0092	1.30695E-002	-4.66639E-009	0.00000E+000	1.29000E-002	8.00223E-005	4	..........a	-327.66
	48	0.0098	-1.71305E-002	-5.27842E-009	0.00000E+000	-1.71000E-002	8.00223E-005	4	..........a	-327.66
	51	0.0104	-4.70305E-002	-5.93244E-009	0.00000E+000	-4.71000E-002	8.00223E-005	4	..........a	-327.66
	54	0.011	-7.69305E-002	-6.61147E-009	0.00000E+000	-7.71000E-002	8.00223E-005	4	..........a	-327.66
	57	0.0116	-1.07130E-001	-7.30749E-009	0.00000E+000	-1.07100E-001	8.00223E-005	4	..........a	-327.66
[...]
	2766	0.5534	7.99969E-001	9.94017E-009	0.00000E+000	8.00000E-001	8.00223E-005	4	..........a	-327.66
CURVE11	TABLE
	Pt	T	Vf	Im	Vu	Sig	Ach	IERange	Over	Temp
	#	s	V vs. Ref.	A	V	V	V	#	bits	deg C
	2767	0.5536	7.89869E-001	1.01052E-008	0.00000E+000	7.90000E-001	8.00223E-005	4	..........a	-327.66
	2768	0.5538	7.79769E-001	1.02322E-008	0.00000E+000	7.80000E-001	8.00223E-005	4	..........a	-327.66
	2769	0.554	7.69969E-001	1.03212E-008	0.00000E+000	7.70000E-001	8.00223E-005	4	..........a	-327.66
	2770	0.5542	7.59869E-001	1.03862E-008	0.00000E+000	7.60000E-001	8.00223E-005	4	..........a	-327.66
	2771	0.5544	7.50069E-001	1.04252E-008	0.00000E+000	7.50000E-001	8.00223E-005	4	..........a	-327.66
	2772	0.5546	7.39969E-001	1.04542E-008	0.00000E+000	7.40000E-001	8.00223E-005	4	..........a	-327.66
	2773	0.5548	7.29869E-001	1.04602E-008	0.00000E+000	7.30000E-001	8.00223E-005	4	..........a	-327.66
	2774	0.555	7.19869E-001	1.04602E-008	0.00000E+000	7.20000E-001	8.00223E-005	4	..........a	-327.66
	2775	0.5552	7.10069E-001	1.04572E-008	0.00000E+000	7.10000E-001	8.00223E-005	4	..........a	-327.66
	2776	0.5554	6.99769E-001	1.04342E-008	0.00000E+000	7.00000E-001	8.00223E-005	4	..........a	-327.66
	2777	0.5556	6.89869E-001	1.04072E-008	0.00000E+000	6.90000E-001	8.00223E-005	4	..........a	-327.66
	2778	0.5558	6.79869E-001	1.03782E-008	0.00000E+000	6.80000E-001	8.00223E-005	4	..........a	-327.66
	2779	0.556	6.69869E-001	1.03342E-008	0.00000E+000	6.70000E-001	8.00223E-005	4	..........a	-327.66
	2780	0.5562	6.59970E-001	1.02892E-008	0.00000E+000	6.60000E-001	8.00223E-005	4	..........a	-327.66
	2781	0.5564	6.49669E-001	1.02382E-008	0.00000E+000	6.50000E-001	8.00223E-005	4	..........a	-327.66
	2782	0.5566	6.39870E-001	1.01882E-008	0.00000E+000	6.40000E-001	8.00223E-005	4	..........a	-327.66
	2783	0.5568	6.29969E-001	1.01322E-008	0.00000E+000	6.30000E-001	8.00223E-005	4	..........a	-327.66
	2784	0.557	6.19669E-001	1.00662E-008	0.00000E+000	6.20000E-001	8.00223E-005	4	..........a	-327.66
	2785	0.5572	6.09819E-001	1.00022E-008	0.00000E+000	6.10000E-001	8.00223E-005	4	..........a	-327.66
	2786	0.5574	6.00069E-001	9.93317E-009	0.00000E+000	6.00000E-001	8.00223E-005	4	..........a	-327.66
	2787	0.5576	5.89969E-001	9.86117E-009	0.00000E+000	5.90000E-001	8.00223E-005	4	..........a	-327.66
	2788	0.5578	5.79870E-001	9.78816E-009	0.00000E+000	5.80000E-001	8.00223E-005	4	..........a	-327.66
	2789	0.558	5.69770E-001	9.70716E-009	0.00000E+000	5.70000E-001	8.00223E-005	4	..........a	-327.66
	2790	0.5582	5.59969E-001	9.62616E-009	0.00000E+000	5.60000E-001	8.00223E-005	4	..........a	-327.66
	2791	0.5584	5.49869E-001	9.54815E-009	0.00000E+000	5.50000E-001	8.00223E-005	4	..........a	-327.66
	2792	0.5586	5.39769E-001	9.45615E-009	0.00000E+000	5.40000E-001	8.00223E-005	4	..........a	-327.66
	2793	0.5588	5.30069E-001	9.37215E-009	0.00000E+000	5.30000E-001	8.00223E-005	4	..........a	-327.66
	2794	0.559	5.19969E-001	9.27614E-009	0.00000E+000	5.20000E-001	8.00223E-005	4	..........a	-327.66
	2795	0.5592	5.09870E-001	9.18414E-009	0.00000E+000	5.10000E-001	8.00223E-005	4	..........a	-327.66
	2796	0.5594	5.00170E-001	9.08814E-009	0.00000E+000	5.00000E-001	8.00223E-005	4	..........a	-327.66
	2797	0.5596	4.90070E-001	8.98913E-009	0.00000E+000	4.90000E-001	8.00223E-005	4	..........a	-327.66
	2798	0.5598	4.79720E-001	8.89213E-009	0.00000E+000	4.80000E-001	8.00223E-005	4	..........a	-327.66
	2799	0.56	4.69870E-001	8.78212E-009	0.00000E+000	4.70000E-001	8.00223E-005	4	..........a	-327.66
	2800	0.5602	4.59970E-001	8.68312E-009	0.00000E+000	4.60000E-001	8.00223E-005	4	..........a	-327.66

File: 20240321_ZR_GM0016_HL03_E11_CV50k.DTA
EXPLAIN
TAG	CV
TITLE	LABEL	Cyclic Voltammetry	Test &Identifier
DATE	LABEL	3/21/2024	Date
TIME	LABEL	18:59:33	Time
NOTES	NOTES	1	&Notes...

PSTAT	PSTAT	REF600P-43058	Potentiostat
VINIT	POTEN	0.00000E+000	T	Initial &E (V)
VLIMIT1	POTEN	-6.00000E-001	F	Scan Limit &1 (V)
VLIMIT2	POTEN	8.00000E-001	F	Scan Limit &2 (V)
VFINAL	POTEN	0.00000E+000	T	Final &E (V)
SCANRATE	QUANT	4.99999E+004	&Scan Rate (mV/s)
STEPSIZE	QUANT	1.00000E+001	St&ep Size (mV)
CYCLES	IQUANT	10	C&ycles (#)
IMODE	SELECTOR	1	I/E Range &Mode
IRANGE	QUANT	1.00000E-005	&Max Current (mA)
AREA	QUANT	1.00000E+000	Electrode &Area (cm^2)
ELECTRODETYPE	SELECTOR	0	Electrode Type
STRIPPING	TOGGLE	F	Used for Stripping
POLARITY	TOGGLE	F	Signal Polarity
CONDIT	TWOPARAM	F	1.50000E+001	0.00000E+000	Conditionin&g	Time(s)	E(V)
DELAY	TWOPARAM	T	1.00000E+001	0.00000E+000	Init. De&lay	Time(s)	Stab.(mV/s)
EQDELAY	QUANT	1.00000E+001	Equil. &Time (s)
IRCOMP	SELECTOR	0	IRCom&p
PFCOR	QUANT	5.00000E+001	PF Corr. (ohm)
SAMPLINGMODE	SELECTOR	1	Sampling &Mode
OCVCURVE	TABLE	39
	Pt	T	Vf	Vm	Ach	Over	Temp
	#	s	V vs. Ref.	V	V	bits	deg C
	0	0.258333	3.36919E-001	3.36919E-001	2.56822E-004	..........a	-327.66
	1	0.516667	3.36922E-001	3.37103E-001	2.54156E-004	..........a	-327.66
	2	0.775	3.36944E-001	3.37317E-001	2.39622E-004	..........a	-327.66
	3	1.03333	3.37011E-001	3.37538E-001	2.52289E-004	..........a	-327.66
	4	1.29167	3.37135E-001	3.37767E-001	2.39756E-004	..........a	-327.66
	5	1.55	3.37310E-001	3.37927E-001	2.41422E-004	..........a	-327.66
	6	1.80833	3.37514E-001	3.38218E-001	2.48289E-004	..........a	-327.66
	7	2.06667	3.37730E-001	3.38442E-001	2.51356E-004	..........a	-327.66
	8	2.325	3.37952E-001	3.38596E-001	2.57022E-004	..........a	-327.66
	9	2.58333	3.38174E-001	3.38754E-001	2.55489E-004	..........a	-327.66
	10	2.84167	3.38385E-001	3.38974E-001	2.38289E-004	..........a	-327.66
	11	3.1	3.38580E-001	3.39190E-001	2.57622E-004	..........a	-327.66
	12	3.35833	3.38770E-001	3.39405E-001	2.48156E-004	..........a	-327.66
	13	3.61667	3.38967E-001	3.39587E-001	2.38889E-004	..........a	-327.66
	14	3.875	3.39172E-001	3.39866E-001	2.39689E-004	..........a	-327.66
	15	4.13333	3.39383E-001	3.40044E-001	2.50756E-004	..........a	-327.66
	16	4.39167	3.39598E-001	3.40202E-001	2.38422E-004	..........a	-327.66
	17	4.65	3.39810E-001	3.40372E-001	2.28356E-004	..........a	-327.66
	18	4.90833	3.40008E-001	3.40593E-001	2.32422E-004	..........a	-327.66
	19	5.16667	3.40196E-001	3.40799E-001	2.31156E-004	..........a	-327.66
	20	5.425	3.40384E-001	3.41005E-001	2.41289E-004	..........a	-327.66
	21	5.68333	3.40579E-001	3.41197E-001	2.44156E-004	..........a	-327.66
	22	5.94167	3.40781E-001	3.41456E-001	2.36689E-004	..........a	-327.66
	23	6.2	3.40989E-001	3.41655E-001	2.45556E-004	..........a	-327.66
	24	6.45833	3.41202E-001	3.41808E-001	2.40556E-004	..........a	-327.66
	25	6.71667	3.41412E-001	3.41984E-001	2.40022E-004	..........a	-327.66
	26	6.975	3.41612E-001	3.42193E-001	2.27289E-004	..........a	-327.66
	27	7.23333	3.41801E-001	3.42394E-001	2.48956E-004	..........a	-327.66
	28	7.49167	3.41989E-001	3.42609E-001	2.28622E-004	..........a	-327.66
	29	7.75	3.42182E-001	3.42785E-001	2.32089E-004	..........a	-327.66
	30	8.00833	3.42381E-001	3.43029E-001	2.33489E-004	..........a	-327.66
	31	8.26667	3.42584E-001	3.43228E-001	2.44022E-004	..........a	-327.66
	32	8.525	3.42790E-001	3.43390E-001	2.38356E-004	..........a	-327.66
	33	8.78333	3.42994E-001	3.43554E-001	2.31422E-004	..........a	-327.66
	34	9.04167	3.43190E-001	3.43776E-001	2.18822E-004	..........a	-327.66
	35	9.3	3.43378E-001	3.43966E-001	2.42822E-004	..........a	-327.66
	36	9.5583	3.43565E-001	3.44174E-001	2.41956E-004	..........a	-327.66
	37	9.8167	3.43756E-001	3.44323E-001	2.37489E-004	..........a	-327.66
	38	10.075	3.43950E-001	3.44580E-001	2.26356E-004	..........a	-327.66
EOC	QUANT	0.3439499	Open Circuit (V)
PSTATMODEL	IQUANT	7	Pstat Model
PSTATSECTION	LABEL	REF600P-43058	Pstat Section
PSTATSERIALNO	LABEL	43058	Pstat Serial Number
CTRLMODE	IQUANT	1	Control Mode
ELECTROMETER	IQUANT	0	RE=0 or CS=1
IESTAB	IQUANT	2	I/E Stability
CASPEED	IQUANT	4	Control Amp Speed
CONVENTION	IQUANT	1	Current Convention
ICHRANGE	IQUANT	2	Ich Range
ICHRANGEMODE	TOGGLE	F	Ich Auto Range
ICHOFFSETENABLE	TOGGLE	F	Ich Offset Enable
ICHOFFSET	QUANT	0	Ich Offset (V)
ICHFILTER	IQUANT	1	Ich Filter
VCHRANGE	IQUANT	2	Vch Range
VCHRANGEMODE	TOGGLE	F	Vch Auto Range
VCHOFFSETENABLE	TOGGLE	F	Vch Offset Enable
VCHOFFSET	QUANT	0	Vch Offset (V)
VCHFILTER	IQUANT	1	Vch Filter
ACHRANGE	IQUANT	2	Ach Range
ACHOFFSETENABLE	TOGGLE	F	Ach Offset Enable
ACHOFFSET	QUANT	0	Ach Offset (V)
ACHFILTER	IQUANT	1	Ach Filter
IERANGELOWERLIMIT	IQUANT	1	I/E Range Lower Limit
IERANGEMODE	TOGGLE	F	I/E AutoRange
IERANGE	IQUANT	4	I/E Range
POSFEEDENABLE	TOGGLE	F	Positive Feedback IR Comp
POSFEEDRESISTANCE	QUANT	0	Positive Feedback Resistance (ohm)
ACHSELECT	IQUANT	4	Ach Select
SENSECABLEID	IQUANT	7	Sense Cable ID
PWRCABLEID	IQUANT	7	Power Cable ID
DCCALDATE	LABEL	12/18/2023	DC Calibration Date
ACCALDATE	LABEL	12/18/2023	AC Calibration Date
THERMOSELECT	IQUANT	1	Thermo Select
FRAMEWORKVERSION	LABEL	7.8.4	Framework Version
INSTRUMENTVERSION	LABEL	4.42	Instrument Version
CURVE1	TABLE
	Pt	T	Vf	Im	Vu	Sig	Ach	IERange	Over	Temp
	#	s	V vs. Ref.	A	V	V	V	#	bits	deg C
	0	0.0002	3.43970E-001	2.47886E-011	0.00000E+000	3.43950E-001	8.00223E-005	4	..........a	-327.66
	3	0.0008	3.13970E-001	-1.00216E-010	0.00000E+000	3.13950E-001	8.00223E-005	4	..........a	-327.66
	6	0.0014	2.83970E-001	-2.47222E-010	0.00000E+000	2.83950E-001	8.00223E-005	4	..........a	-327.66
	9	0.002	2.53970E-001	-4.02228E-010	0.00000E+000	2.53950E-001	8.00223E-005	4	..........a	-327.66
	12	0.0026	2.23770E-001	-5.76235E-010	0.00000E+000	2.23950E-001	8.00223E-005	4	..........a	-327.66
	15	0.0032	1.93870E-001	-7.62242E-010	0.00000E+000	1.93950E-001	8.00223E-005	4	..........a	-327.66
	18	0.0038	1.64070E-001	-9.68250E-010	0.00000E+000	1.63950E-001	8.00223E-005	4	..........a	-327.66
	21	0.0044	1.34070E-001	-1.19326E-009	0.00000E+000	1.33950E-001	8.00223E-005	4	..........a	-327.66
	24	0.005	1.03970E-001	-1.44427E-009	0.00000E+000	1.03950E-001	8.00223E-005	4	..........a	-327.66
	27	0.0056	7.39695E-002	-1.70128E-009	0.00000E+000	7.39500E-002	8.00223E-005	4	..........a	-327.66
	30	0.0062	4.37695E-002	-1.99429E-009	0.00000E+000	4.39500E-002	8.00223E-005	4	..........a	-327.66
	33	0.0068	1.40695E-002	-2.30830E-009	0.00000E+000	1.39500E-002	8.00223E-005	4	..........a	-327.66
	36	0.0074	-1.60305E-002	-2.65031E-009	0.00000E+000	-1.60500E-002	-4.19978E-004	4	..........a	-327.66
	39	0.008	-4.59305E-002	-3.01233E-009	0.00000E+000	-4.60500E-002	-1.19978E-004	4	..........a	-327.66
	42	0.0086	-7.60305E-002	-3.39634E-009	0.00000E+000	-7.60500E-002	8.00223E-005	4	..........a	-327.66
	45	0.0092	-1.05930E-001	-3.79436E-009	0.00000E+000	-1.06050E-001	8.00223E-005	4	..........a	-327.66
	48	0.0098	-1.36230E-001	-4.21037E-009	0.00000E+000	-1.36050E-001	8.00223E-005	4	..........a	-327.66
	51	0.0104	-1.66030E-001	-4.64639E-009	0.00000E+000	-1.66050E-001	8.00223E-005	4	..........a	-327.66
	54	0.011	-1.95930E-001	-5.08641E-009	0.00000E+000	-1.96050E-001	8.00223E-005	4	..........a	-327.66
	57	0.0116	-2.25930E-001	-5.53843E-009	0.00000E+000	-2.26050E-001	-1.19978E-004	4	..........a	-327.66
[...]
	2765	0.5532	6.89819E-001	7.96109E-009	0.00000E+000	6.90000E-001	8.00223E-005	4	..........a	-327.66
	2766	0.5534	6.79669E-001	7.92809E-009	0.00000E+000	6.80000E-001	8.00223E-005	4	..........a	-327.66
	2767	0.5536	6.69869E-001	7.88209E-009	0.00000E+000	6.70000E-001	-2.19978E-004	4	..........a	-327.66
	2768	0.5538	6.59869E-001	7.84209E-009	0.00000E+000	6.60000E-001	8.00223E-005	4	..........a	-327.66
	2769	0.554	6.49969E-001	7.79409E-009	0.00000E+000	6.50000E-001	8.00223E-005	4	..........a	-327.66
	2770	0.5542	6.39870E-001	7.73808E-009	0.00000E+000	6.40000E-001	8.00223E-005	4	..........a	-327.66
	2771	0.5544	6.29969E-001	7.68208E-009	0.00000E+000	6.30000E-001	-3.19978E-004	4	..........a	-327.66
	2772	0.5546	6.19869E-001	7.62808E-009	0.00000E+000	6.20000E-001	8.00223E-005	4	..........a	-327.66
	2773	0.5548	6.09869E-001	7.56408E-009	0.00000E+000	6.10000E-001	8.00223E-005	4	..........a	-327.66
	2774	0.555	5.99970E-001	7.50308E-009	0.00000E+000	6.00000E-001	8.00223E-005	4	..........a	-327.66
	2775	0.5552	5.89819E-001	7.43407E-009	0.00000E+000	5.90000E-001	8.00223E-005	4	..........a	-327.66
	2776	0.5554	5.80069E-001	7.36407E-009	0.00000E+000	5.80000E-001	8.00223E-005	4	..........a	-327.66
	2777	0.5556	5.70069E-001	7.30107E-009	0.00000E+000	5.70000E-001	8.00223E-005	4	..........a	-327.66
	2778	0.5558	5.59969E-001	7.22807E-009	0.00000E+000	5.60000E-001	8.00223E-005	4	..........a	-327.66
	2779	0.556	5.50070E-001	7.15606E-009	0.00000E+000	5.50000E-001	8.00223E-005	4	..........a	-327.66
	2780	0.5562	5.40069E-001	7.08006E-009	0.00000E+000	5.40000E-001	8.00223E-005	4	..........a	-327.66
	2781	0.5564	5.29869E-001	7.00206E-009	0.00000E+000	5.30000E-001	8.00223E-005	4	..........a	-327.66
	2782	0.5566	5.19870E-001	6.92505E-009	0.00000E+000	5.20000E-001	8.00223E-005	4	..........a	-327.66
	2783	0.5568	5.10069E-001	6.84205E-009	0.00000E+000	5.10000E-001	8.00223E-005	4	..........a	-327.66
	2784	0.557	5.00219E-001	6.75905E-009	0.00000E+000	5.00000E-001	8.00223E-005	4	..........a	-327.66
	2785	0.5572	4.90070E-001	6.67704E-009	0.00000E+000	4.90000E-001	8.00223E-005	4	..........a	-327.66
	2786	0.5574	4.80020E-001	6.59204E-009	0.00000E+000	4.80000E-001	8.00223E-005	4	..........a	-327.66
	2787	0.5576	4.69870E-001	6.50504E-009	0.00000E+000	4.70000E-001	8.00223E-005	4	..........a	-327.66
	2788	0.5578	4.59970E-001	6.41503E-009	0.00000E+000	4.60000E-001	8.00223E-005	4	..........a	-327.66
	2789	0.558	4.49670E-001	6.32503E-009	0.00000E+000	4.50000E-001	8.00223E-005	4	..........a	-327.66
	2790	0.5582	4.39970E-001	6.23603E-009	0.00000E+000	4.40000E-001	8.00223E-005	4	..........a	-327.66
	2791	0.5584	4.29870E-001	6.13802E-009	0.00000E+000	4.30000E-001	8.00223E-005	4	..........a	-327.66
	2792	0.5586	4.19870E-001	6.04302E-009	0.00000E+000	4.20000E-001	8.00223E-005	4	..........a	-327.66
	2793	0.5588	4.10070E-001	5.94402E-009	0.00000E+000	4.10000E-001	8.00223E-005	4	..........a	-327.66
	2794	0.559	4.00070E-001	5.84701E-009	0.00000E+000	4.00000E-001	8.00223E-005	4	..........a	-327.66
	2795	0.5592	3.89970E-001	5.74401E-009	0.00000E+000	3.90000E-001	8.00223E-005	4	..........a	-327.66
	2796	0.5594	3.80020E-001	5.63900E-009	0.00000E+000	3.80000E-001	8.00223E-005	4	..........a	-327.66
	2797	0.5596	3.69770E-001	5.53100E-009	0.00000E+000	3.70000E-001	8.00223E-005	4	..........a	-327.66
	2798	0.5598	3.60070E-001	5.42800E-009	0.00000E+000	3.60000E-001	8.00223E-005	4	..........a	-327.66
	2799	0.56	3.50070E-001	5.31799E-009	0.00000E+000	3.50000E-001	8.00223E-005	4	..........a	-327.66
	2800	0.5602	3.39870E-001	5.20599E-009	0.00000E+000	3.40000E-001	8.00223E-005	4	..........a	-327.66