Folder: GamryParser/data/raw/batch_data (part 6)

File: 20240321_ZU_GM0016_HL03_E12_CV50.DTA
EXPLAIN
TAG	CV
TITLE	LABEL	Cyclic Voltammetry	Test &Identifier
DATE	LABEL	3/21/2024	Date
TIME	LABEL	19:10:14	Time
NOTES	NOTES	1	&Notes...

PSTAT	PSTAT	REF600P-43058	Potentiostat
VINIT	POTEN	0.00000E+000	T	Initial &E (V)
VLIMIT1	POTEN	-6.00000E-001	F	Scan Limit &1 (V)
VLIMIT2	POTEN	8.00000E-001	F	Scan Limit &2 (V)
VFINAL	POTEN	0.00000E+000	T	Final &E (V)
SCANRATE	QUANT	4.99999E+001	&Scan Rate (mV/s)
STEPSIZE	QUANT	1.00000E+001	St&ep Size (mV)
CYCLES	IQUANT	4	C&ycles (#)
IMODE	SELECTOR	1	I/E Range &Mode
IRANGE	QUANT	1.00000E-005	&Max Current (mA)
AREA	QUANT	1.00000E+000	Electrode &Area (cm^2)
ELECTRODETYPE	SELECTOR	0	Electrode Type
STRIPPING	TOGGLE	F	Used for Stripping
POLARITY	TOGGLE	F	Signal Polarity
CONDIT	TWOPARAM	F	1.50000E+001	0.00000E+000	Conditionin&g	Time(s)	E(V)
DELAY	TWOPARAM	T	1.00000E+001	0.00000E+000	Init. De&lay	Time(s)	Stab.(mV/s)
EQDELAY	QUANT	1.00000E+001	Equil. &Time (s)
IRCOMP	SELECTOR	0	IRCom&p
PFCOR	QUANT	5.00000E+001	PF Corr. (ohm)
SAMPLINGMODE	SELECTOR	1	Sampling &Mode
OCVCURVE	TABLE	39
	Pt	T	Vf	Vm	Ach	Over	Temp
	#	s	V vs. Ref.	V	V	bits	deg C
	0	0.258333	2.20360E-001	2.20360E-001	2.55422E-004	..........a	-327.66
	1	0.516667	2.20359E-001	2.20313E-001	2.36022E-004	..........a	-327.66
	2	0.775	2.20355E-001	2.20345E-001	2.34956E-004	..........a	-327.66
	3	1.03333	2.20349E-001	2.20421E-001	2.35622E-004	..........a	-327.66
	4	1.29167	2.20353E-001	2.20521E-001	2.41156E-004	..........a	-327.66
	5	1.55	2.20380E-001	2.20639E-001	2.39489E-004	..........a	-327.66
	6	1.80833	2.20439E-001	2.20767E-001	2.37489E-004	..........a	-327.66
	7	2.06667	2.20527E-001	2.20890E-001	2.36822E-004	..........a	-327.66
	8	2.325	2.20635E-001	2.21024E-001	2.29756E-004	..........a	-327.66
	9	2.58333	2.20756E-001	2.21165E-001	2.18289E-004	..........a	-327.66
	10	2.84167	2.20884E-001	2.21312E-001	2.33222E-004	..........a	-327.66
	11	3.1	2.21018E-001	2.21468E-001	2.52022E-004	..........a	-327.66
	12	3.35833	2.21159E-001	2.21609E-001	2.40822E-004	..........a	-327.66
	13	3.61667	2.21304E-001	2.21763E-001	2.47156E-004	..........a	-327.66
	14	3.875	2.21451E-001	2.21910E-001	2.24622E-004	..........a	-327.66
	15	4.13333	2.21600E-001	2.22060E-001	2.60089E-004	..........a	-327.66
	16	4.39167	2.21750E-001	2.22209E-001	2.62156E-004	..........a	-327.66
	17	4.65	2.21899E-001	2.22364E-001	2.35756E-004	..........a	-327.66
	18	4.90833	2.22049E-001	2.22518E-001	2.29956E-004	..........a	-327.66
	19	5.16667	2.22200E-001	2.22668E-001	2.28356E-004	..........a	-327.66
	20	5.425	2.22352E-001	2.22824E-001	2.37489E-004	..........a	-327.66
	21	5.68333	2.22505E-001	2.22976E-001	2.28622E-004	..........a	-327.66
	22	5.94167	2.22658E-001	2.23129E-001	2.42556E-004	..........a	-327.66
	23	6.2	2.22811E-001	2.23275E-001	2.38556E-004	..........a	-327.66
	24	6.45833	2.22963E-001	2.23424E-001	2.33822E-004	..........a	-327.66
	25	6.71667	2.23114E-001	2.23570E-001	2.49422E-004	..........a	-327.66
	26	6.975	2.23264E-001	2.23724E-001	2.16289E-004	..........a	-327.66
	27	7.23333	2.23413E-001	2.23873E-001	2.43156E-004	..........a	-327.66
	28	7.49167	2.23562E-001	2.24028E-001	2.31756E-004	..........a	-327.66
	29	7.75	2.23712E-001	2.24169E-001	2.38756E-004	..........a	-327.66
	30	8.00833	2.23862E-001	2.24322E-001	2.49822E-004	..........a	-327.66
	31	8.26667	2.24012E-001	2.24465E-001	2.50489E-004	..........a	-327.66
	32	8.525	2.24160E-001	2.24607E-001	2.33489E-004	..........a	-327.66
	33	8.78333	2.24307E-001	2.24748E-001	2.36889E-004	..........a	-327.66
	34	9.04167	2.24452E-001	2.24886E-001	2.29622E-004	..........a	-327.66
	35	9.3	2.24595E-001	2.25030E-001	2.26489E-004	..........a	-327.66
	36	9.5583	2.24737E-001	2.25173E-001	2.52022E-004	..........a	-327.66
	37	9.8167	2.24878E-001	2.25309E-001	2.34889E-004	..........a	-327.66
	38	10.075	2.25018E-001	2.25451E-001	2.39889E-004	..........a	-327.66
EOC	QUANT	0.2250185	Open Circuit (V)
PSTATMODEL	IQUANT	7	Pstat Model
PSTATSECTION	LABEL	REF600P-43058	Pstat Section
PSTATSERIALNO	LABEL	43058	Pstat Serial Number
CTRLMODE	IQUANT	1	Control Mode
ELECTROMETER	IQUANT	0	RE=0 or CS=1
IESTAB	IQUANT	2	I/E Stability
CASPEED	IQUANT	4	Control Amp Speed
CONVENTION	IQUANT	1	Current Convention
ICHRANGE	IQUANT	2	Ich Range
ICHRANGEMODE	TOGGLE	F	Ich Auto Range
ICHOFFSETENABLE	TOGGLE	F	Ich Offset Enable
ICHOFFSET	QUANT	0	Ich Offset (V)
ICHFILTER	IQUANT	2	Ich Filter
VCHRANGE	IQUANT	2	Vch Range
VCHRANGEMODE	TOGGLE	F	Vch Auto Range
VCHOFFSETENABLE	TOGGLE	F	Vch Offset Enable
VCHOFFSET	QUANT	0	Vch Offset (V)
VCHFILTER	IQUANT	2	Vch Filter
ACHRANGE	IQUANT	2	Ach Range
ACHOFFSETENABLE	TOGGLE	F	Ach Offset Enable
ACHOFFSET	QUANT	0	Ach Offset (V)
ACHFILTER	IQUANT	1	Ach Filter
IERANGELOWERLIMIT	IQUANT	1	I/E Range Lower Limit
IERANGEMODE	TOGGLE	F	I/E AutoRange
IERANGE	IQUANT	4	I/E Range
POSFEEDENABLE	TOGGLE	F	Positive Feedback IR Comp
POSFEEDRESISTANCE	QUANT	0	Positive Feedback Resistance (ohm)
ACHSELECT	IQUANT	4	Ach Select
SENSECABLEID	IQUANT	7	Sense Cable ID
PWRCABLEID	IQUANT	7	Power Cable ID
DCCALDATE	LABEL	12/18/2023	DC Calibration Date
ACCALDATE	LABEL	12/18/2023	AC Calibration Date
THERMOSELECT	IQUANT	1	Thermo Select
FRAMEWORKVERSION	LABEL	7.8.4	Framework Version
INSTRUMENTVERSION	LABEL	4.42	Instrument Version
CURVE1	TABLE
	Pt	T	Vf	Im	Vu	Sig	Ach	IERange	Over	Temp
	#	s	V vs. Ref.	A	V	V	V	#	bits	deg C
	0	0.2	2.24977E-001	3.29431E-011	0.00000E+000	2.25000E-001	9.84822E-004	4	..........a	-327.66
	3	0.8	1.94951E-001	-2.00130E-011	0.00000E+000	1.95000E-001	1.04322E-003	4	..........a	-327.66
	6	1.4	1.65019E-001	-3.64146E-011	0.00000E+000	1.65000E-001	1.00902E-003	4	..........a	-327.66
	9	2	1.35089E-001	-4.35649E-011	0.00000E+000	1.35000E-001	9.98522E-004	4	..........a	-327.66
	12	2.6	1.05035E-001	-5.24502E-011	0.00000E+000	1.05000E-001	1.01992E-003	4	..........a	-327.66
	15	3.2	7.50055E-002	-5.79994E-011	0.00000E+000	7.50000E-002	1.02782E-003	4	..........a	-327.66
	18	3.8	4.50079E-002	-6.58117E-011	0.00000E+000	4.50000E-002	9.92022E-004	4	..........a	-327.66
	21	4.4	1.51514E-002	-7.02719E-011	0.00000E+000	1.50000E-002	1.01212E-003	4	..........a	-327.66
	24	5	-1.49884E-002	-7.51121E-011	0.00000E+000	-1.50000E-002	1.02492E-003	4	..........a	-327.66
	27	5.6	-4.50055E-002	-8.18293E-011	0.00000E+000	-4.50000E-002	1.04432E-003	4	..........a	-327.66
	30	6.2	-7.49843E-002	-8.80206E-011	0.00000E+000	-7.50000E-002	1.02362E-003	4	..........a	-327.66
	33	6.8	-1.04892E-001	-9.52549E-011	0.00000E+000	-1.05000E-001	1.00392E-003	4	..........a	-327.66
	36	7.4	-1.35005E-001	-1.03623E-010	0.00000E+000	-1.35000E-001	1.03702E-003	4	..........a	-327.66
	39	8	-1.64954E-001	-1.12554E-010	0.00000E+000	-1.65000E-001	9.88422E-004	4	..........a	-327.66
	42	8.6	-1.94991E-001	-1.23487E-010	0.00000E+000	-1.95000E-001	1.02882E-003	4	..........a	-327.66
	45	9.2	-2.24889E-001	-1.32375E-010	0.00000E+000	-2.25000E-001	1.01022E-003	4	..........a	-327.66
	48	9.8	-2.54983E-001	-1.47616E-010	0.00000E+000	-2.55000E-001	1.00402E-003	4	..........a	-327.66
	51	10.4	-2.84976E-001	-1.65372E-010	0.00000E+000	-2.85000E-001	1.01892E-003	4	..........a	-327.66
	54	11	-3.14987E-001	-1.86344E-010	0.00000E+000	-3.15000E-001	1.00062E-003	4	..........a	-327.66
	57	11.6	-3.44858E-001	-2.12094E-010	0.00000E+000	-3.45000E-001	1.04622E-003	4	..........a	-327.66
	60	12.2	-3.74960E-001	-2.43733E-010	0.00000E+000	-3.75000E-001	9.87222E-004	4	..........a	-327.66
[...]
	1083	216.8	5.80017E-001	-4.23818E-011	0.00000E+000	5.80000E-001	1.02402E-003	4	..........a	-327.66
	1084	217	5.69939E-001	-4.67780E-011	0.00000E+000	5.70000E-001	1.03972E-003	4	..........a	-327.66
	1085	217.2	5.59970E-001	-5.11412E-011	0.00000E+000	5.60000E-001	1.01372E-003	4	..........a	-327.66
	1086	217.4	5.49953E-001	-5.56343E-011	0.00000E+000	5.50000E-001	1.02522E-003	4	..........a	-327.66
	1087	217.6	5.40011E-001	-5.95715E-011	0.00000E+000	5.40000E-001	1.02652E-003	4	..........a	-327.66
	1088	217.8	5.29940E-001	-6.23256E-011	0.00000E+000	5.30000E-001	1.02122E-003	4	..........a	-327.66
	1089	218	5.19928E-001	-6.69808E-011	0.00000E+000	5.20000E-001	1.03572E-003	4	..........a	-327.66
	1090	218.2	5.09937E-001	-6.97069E-011	0.00000E+000	5.10000E-001	1.01602E-003	4	..........a	-327.66
	1091	218.4	5.00045E-001	-7.20570E-011	0.00000E+000	5.00000E-001	1.01732E-003	4	..........a	-327.66
	1092	218.6	4.89947E-001	-7.53701E-011	0.00000E+000	4.90000E-001	9.97422E-004	4	..........a	-327.66
	1093	218.8	4.79874E-001	-7.80322E-011	0.00000E+000	4.80000E-001	1.03602E-003	4	..........a	-327.66
	1094	219	4.69938E-001	-8.08353E-011	0.00000E+000	4.70000E-001	1.00982E-003	4	..........a	-327.66
	1095	219.2	4.60007E-001	-8.36354E-011	0.00000E+000	4.60000E-001	1.01922E-003	4	..........a	-327.66
	1096	219.4	4.50011E-001	-8.63515E-011	0.00000E+000	4.50000E-001	1.03822E-003	4	..........a	-327.66
	1097	219.6	4.39946E-001	-8.98787E-011	0.00000E+000	4.40000E-001	1.03702E-003	4	..........a	-327.66
	1098	219.8	4.29954E-001	-9.06977E-011	0.00000E+000	4.30000E-001	1.03752E-003	4	..........a	-327.66
	1099	220	4.20021E-001	-9.24797E-011	0.00000E+000	4.20000E-001	1.01462E-003	4	..........a	-327.66
	1100	220.2	4.09922E-001	-9.45678E-011	0.00000E+000	4.10000E-001	1.01942E-003	4	..........a	-327.66
	1101	220.4	4.00012E-001	-9.83730E-011	0.00000E+000	4.00000E-001	1.03622E-003	4	..........a	-327.66
	1102	220.6	3.89990E-001	-9.95160E-011	0.00000E+000	3.90000E-001	1.01952E-003	4	..........a	-327.66
	1103	220.8	3.80013E-001	-1.00708E-010	0.00000E+000	3.80000E-001	1.01832E-003	4	..........a	-327.66
	1104	221	3.69994E-001	-1.02768E-010	0.00000E+000	3.70000E-001	1.01722E-003	4	..........a	-327.66
	1105	221.2	3.59995E-001	-1.04885E-010	0.00000E+000	3.60000E-001	1.02542E-003	4	..........a	-327.66
	1106	221.4	3.49961E-001	-1.06266E-010	0.00000E+000	3.50000E-001	1.04372E-003	4	..........a	-327.66
	1107	221.6	3.40036E-001	-1.08383E-010	0.00000E+000	3.40000E-001	1.03762E-003	4	..........a	-327.66
	1108	221.8	3.29975E-001	-1.10665E-010	0.00000E+000	3.30000E-001	1.02432E-003	4	..........a	-327.66
	1109	222	3.19984E-001	-1.13395E-010	0.00000E+000	3.20000E-001	1.01732E-003	4	..........a	-327.66
	1110	222.2	3.09969E-001	-1.15235E-010	0.00000E+000	3.10000E-001	1.05292E-003	4	..........a	-327.66
	1111	222.4	3.00018E-001	-1.17066E-010	0.00000E+000	3.00000E-001	1.04632E-003	4	..........a	-327.66
	1112	222.6	2.89998E-001	-1.18926E-010	0.00000E+000	2.90000E-001	1.01672E-003	4	..........a	-327.66
	1113	222.8	2.79969E-001	-1.20848E-010	0.00000E+000	2.80000E-001	1.01752E-003	4	..........a	-327.66
	1114	223	2.69981E-001	-1.23361E-010	0.00000E+000	2.70000E-001	1.01922E-003	4	..........a	-327.66
	1115	223.2	2.60014E-001	-1.24099E-010	0.00000E+000	2.60000E-001	1.04882E-003	4	..........a	-327.66
	1116	223.4	2.50001E-001	-1.26254E-010	0.00000E+000	2.50000E-001	1.00722E-003	4	..........a	-327.66
	1117	223.6	2.39936E-001	-1.28936E-010	0.00000E+000	2.40000E-001	1.03922E-003	4	..........a	-327.66
	1118	223.8	2.29935E-001	-1.27971E-010	0.00000E+000	2.30000E-001	1.02182E-003	4	..........a	-327.66

File: 20240321_ZY_GM0016_HL03_E13_CV50.DTA
EXPLAIN
TAG	CV
TITLE	LABEL	Cyclic Voltammetry	Test &Identifier
DATE	LABEL	3/21/2024	Date
TIME	LABEL	19:23:37	Time
NOTES	NOTES	1	&Notes...

PSTAT	PSTAT	REF600P-43058	Potentiostat
VINIT	POTEN	0.00000E+000	T	Initial &E (V)
VLIMIT1	POTEN	-6.00000E-001	F	Scan Limit &1 (V)
VLIMIT2	POTEN	8.00000E-001	F	Scan Limit &2 (V)
VFINAL	POTEN	0.00000E+000	T	Final &E (V)
SCANRATE	QUANT	4.99999E+001	&Scan Rate (mV/s)
STEPSIZE	QUANT	1.00000E+001	St&ep Size (mV)
CYCLES	IQUANT	4	C&ycles (#)
IMODE	SELECTOR	1	I/E Range &Mode
IRANGE	QUANT	1.00000E-005	&Max Current (mA)
AREA	QUANT	1.00000E+000	Electrode &Area (cm^2)
ELECTRODETYPE	SELECTOR	0	Electrode Type
STRIPPING	TOGGLE	F	Used for Stripping
POLARITY	TOGGLE	F	Signal Polarity
CONDIT	TWOPARAM	F	1.50000E+001	0.00000E+000	Conditionin&g	Time(s)	E(V)
DELAY	TWOPARAM	T	1.00000E+001	0.00000E+000	Init. De&lay	Time(s)	Stab.(mV/s)
EQDELAY	QUANT	1.00000E+001	Equil. &Time (s)
IRCOMP	SELECTOR	0	IRCom&p
PFCOR	QUANT	5.00000E+001	PF Corr. (ohm)
SAMPLINGMODE	SELECTOR	1	Sampling &Mode
OCVCURVE	TABLE	39
	Pt	T	Vf	Vm	Ach	Over	Temp
	#	s	V vs. Ref.	V	V	bits	deg C
	0	0.258333	1.84366E-001	1.84366E-001	2.27222E-004	..........a	-327.66
	1	0.516667	1.84374E-001	1.84767E-001	2.26756E-004	..........a	-327.66
	2	0.775	1.84423E-001	1.85266E-001	2.35489E-004	..........a	-327.66
	3	1.03333	1.84571E-001	1.85798E-001	2.37956E-004	..........a	-327.66
	4	1.29167	1.84856E-001	1.86381E-001	2.36689E-004	..........a	-327.66
	5	1.55	1.85271E-001	1.86961E-001	2.38089E-004	..........a	-327.66
	6	1.80833	1.85776E-001	1.87561E-001	2.33889E-004	..........a	-327.66
	7	2.06667	1.86334E-001	1.88159E-001	2.19822E-004	..........a	-327.66
	8	2.325	1.86918E-001	1.88775E-001	2.42289E-004	..........a	-327.66
	9	2.58333	1.87515E-001	1.89377E-001	2.32956E-004	..........a	-327.66
	10	2.84167	1.88117E-001	1.89989E-001	2.20956E-004	..........a	-327.66
	11	3.1	1.88724E-001	1.90591E-001	2.35489E-004	..........a	-327.66
	12	3.35833	1.89331E-001	1.91207E-001	2.31089E-004	..........a	-327.66
	13	3.61667	1.89940E-001	1.91808E-001	2.27222E-004	..........a	-327.66
	14	3.875	1.90548E-001	1.92416E-001	2.28156E-004	..........a	-327.66
	15	4.13333	1.91155E-001	1.93025E-001	2.30022E-004	..........a	-327.66
	16	4.39167	1.91762E-001	1.93622E-001	2.30556E-004	..........a	-327.66
	17	4.65	1.92368E-001	1.94212E-001	2.33422E-004	..........a	-327.66
	18	4.90833	1.92971E-001	1.94809E-001	2.15089E-004	..........a	-327.66
	19	5.16667	1.93571E-001	1.95404E-001	2.23956E-004	..........a	-327.66
	20	5.425	1.94168E-001	1.95995E-001	2.40489E-004	..........a	-327.66
	21	5.68333	1.94762E-001	1.96578E-001	2.28222E-004	..........a	-327.66
	22	5.94167	1.95355E-001	1.97172E-001	2.41756E-004	..........a	-327.66
	23	6.2	1.95946E-001	1.97764E-001	2.27489E-004	..........a	-327.66
	24	6.45833	1.96536E-001	1.98344E-001	2.31889E-004	..........a	-327.66
	25	6.71667	1.97125E-001	1.98920E-001	2.48156E-004	..........a	-327.66
	26	6.975	1.97712E-001	1.99503E-001	2.35156E-004	..........a	-327.66
	27	7.23333	1.98296E-001	2.00074E-001	2.30089E-004	..........a	-327.66
	28	7.49167	1.98876E-001	2.00645E-001	2.15356E-004	..........a	-327.66
	29	7.75	1.99454E-001	2.01215E-001	2.38289E-004	..........a	-327.66
	30	8.00833	2.00028E-001	2.01786E-001	2.32889E-004	..........a	-327.66
	31	8.26667	2.00600E-001	2.02349E-001	2.17756E-004	..........a	-327.66
	32	8.525	2.01170E-001	2.02917E-001	2.31089E-004	..........a	-327.66
	33	8.78333	2.01739E-001	2.03473E-001	2.31756E-004	..........a	-327.66
	34	9.04167	2.02305E-001	2.04036E-001	2.52489E-004	..........a	-327.66
	35	9.3	2.02869E-001	2.04594E-001	2.37556E-004	..........a	-327.66
	36	9.5583	2.03430E-001	2.05140E-001	2.35622E-004	..........a	-327.66
	37	9.8167	2.03989E-001	2.05691E-001	2.27222E-004	..........a	-327.66
	38	10.075	2.04545E-001	2.06224E-001	2.32289E-004	..........a	-327.66
EOC	QUANT	0.2045449	Open Circuit (V)
PSTATMODEL	IQUANT	7	Pstat Model
PSTATSECTION	LABEL	REF600P-43058	Pstat Section
PSTATSERIALNO	LABEL	43058	Pstat Serial Number
CTRLMODE	IQUANT	1	Control Mode
ELECTROMETER	IQUANT	0	RE=0 or CS=1
IESTAB	IQUANT	2	I/E Stability
CASPEED	IQUANT	4	Control Amp Speed
CONVENTION	IQUANT	1	Current Convention
ICHRANGE	IQUANT	2	Ich Range
ICHRANGEMODE	TOGGLE	F	Ich Auto Range
ICHOFFSETENABLE	TOGGLE	F	Ich Offset Enable
ICHOFFSET	QUANT	0	Ich Offset (V)
ICHFILTER	IQUANT	2	Ich Filter
VCHRANGE	IQUANT	2	Vch Range
VCHRANGEMODE	TOGGLE	F	Vch Auto Range
VCHOFFSETENABLE	TOGGLE	F	Vch Offset Enable
VCHOFFSET	QUANT	0	Vch Offset (V)
VCHFILTER	IQUANT	2	Vch Filter
ACHRANGE	IQUANT	2	Ach Range
ACHOFFSETENABLE	TOGGLE	F	Ach Offset Enable
ACHOFFSET	QUANT	0	Ach Offset (V)
ACHFILTER	IQUANT	1	Ach Filter
IERANGELOWERLIMIT	IQUANT	1	I/E Range Lower Limit
IERANGEMODE	TOGGLE	F	I/E AutoRange
IERANGE	IQUANT	4	I/E Range
POSFEEDENABLE	TOGGLE	F	Positive Feedback IR Comp
POSFEEDRESISTANCE	QUANT	0	Positive Feedback Resistance (ohm)
ACHSELECT	IQUANT	4	Ach Select
SENSECABLEID	IQUANT	7	Sense Cable ID
PWRCABLEID	IQUANT	7	Power Cable ID
DCCALDATE	LABEL	12/18/2023	DC Calibration Date
ACCALDATE	LABEL	12/18/2023	AC Calibration Date
THERMOSELECT	IQUANT	1	Thermo Select
FRAMEWORKVERSION	LABEL	7.8.4	Framework Version
INSTRUMENTVERSION	LABEL	4.42	Instrument Version
CURVE1	TABLE
	Pt	T	Vf	Im	Vu	Sig	Ach	IERange	Over	Temp
	#	s	V vs. Ref.	A	V	V	V	#	bits	deg C
	0	0.2	2.04500E-001	1.67944E-011	0.00000E+000	2.04550E-001	1.01202E-003	4	..........a	-327.66
	3	0.8	1.74588E-001	-5.43433E-011	0.00000E+000	1.74550E-001	1.02832E-003	4	..........a	-327.66
	6	1.4	1.44760E-001	-8.80036E-011	0.00000E+000	1.44550E-001	1.02662E-003	4	..........a	-327.66
	9	2	1.14592E-001	-1.12129E-010	0.00000E+000	1.14550E-001	1.00462E-003	4	..........a	-327.66
	12	2.6	8.45447E-002	-1.33174E-010	0.00000E+000	8.45500E-002	1.01952E-003	4	..........a	-327.66
	15	3.2	5.45598E-002	-1.50949E-010	0.00000E+000	5.45500E-002	1.02682E-003	4	..........a	-327.66
	18	3.8	2.46282E-002	-1.67053E-010	0.00000E+000	2.45500E-002	1.02132E-003	4	..........a	-327.66
	21	4.4	-5.44711E-003	-1.84034E-010	0.00000E+000	-5.45000E-003	1.02322E-003	4	..........a	-327.66
	24	5	-3.55142E-002	-1.99690E-010	0.00000E+000	-3.54500E-002	1.00432E-003	4	..........a	-327.66
	27	5.6	-6.54034E-002	-2.18791E-010	0.00000E+000	-6.54500E-002	1.00522E-003	4	..........a	-327.66
	30	6.2	-9.53805E-002	-2.39077E-010	0.00000E+000	-9.54500E-002	1.03242E-003	4	..........a	-327.66
	33	6.8	-1.25414E-001	-2.61883E-010	0.00000E+000	-1.25450E-001	1.03492E-003	4	..........a	-327.66
	36	7.4	-1.55417E-001	-2.91524E-010	0.00000E+000	-1.55450E-001	1.01852E-003	4	..........a	-327.66
	39	8	-1.85416E-001	-3.15217E-010	0.00000E+000	-1.85450E-001	1.04142E-003	4	..........a	-327.66
	42	8.6	-2.15382E-001	-3.43501E-010	0.00000E+000	-2.15450E-001	1.00212E-003	4	..........a	-327.66
	45	9.2	-2.45394E-001	-3.75365E-010	0.00000E+000	-2.45450E-001	1.00532E-003	4	..........a	-327.66
	48	9.8	-2.75384E-001	-4.17500E-010	0.00000E+000	-2.75450E-001	1.01962E-003	4	..........a	-327.66
	51	10.4	-3.05393E-001	-4.58499E-010	0.00000E+000	-3.05450E-001	1.02472E-003	4	..........a	-327.66
	54	11	-3.35335E-001	-5.13610E-010	0.00000E+000	-3.35450E-001	1.04072E-003	4	..........a	-327.66
	57	11.6	-3.65422E-001	-5.76762E-010	0.00000E+000	-3.65450E-001	1.02672E-003	4	..........a	-327.66
	60	12.2	-3.95397E-001	-6.49326E-010	0.00000E+000	-3.95450E-001	1.00192E-003	4	..........a	-327.66
[...]
	1083	216.8	5.59922E-001	-7.88612E-011	0.00000E+000	5.60000E-001	1.03512E-003	4	..........a	-327.66
	1084	217	5.49972E-001	-8.77366E-011	0.00000E+000	5.50000E-001	1.04512E-003	4	..........a	-327.66
	1085	217.2	5.40006E-001	-9.82590E-011	0.00000E+000	5.40000E-001	1.04042E-003	4	..........a	-327.66
	1086	217.4	5.29953E-001	-1.03914E-010	0.00000E+000	5.30000E-001	1.04492E-003	4	..........a	-327.66
	1087	217.6	5.19969E-001	-1.11839E-010	0.00000E+000	5.20000E-001	1.04092E-003	4	..........a	-327.66
	1088	217.8	5.09951E-001	-1.19904E-010	0.00000E+000	5.10000E-001	1.02702E-003	4	..........a	-327.66
	1089	218	5.00007E-001	-1.28036E-010	0.00000E+000	5.00000E-001	1.02832E-003	4	..........a	-327.66
	1090	218.2	4.89959E-001	-1.35379E-010	0.00000E+000	4.90000E-001	1.03952E-003	4	..........a	-327.66
	1091	218.4	4.79915E-001	-1.43395E-010	0.00000E+000	4.80000E-001	1.05402E-003	4	..........a	-327.66
	1092	218.6	4.69972E-001	-1.50228E-010	0.00000E+000	4.70000E-001	1.04412E-003	4	..........a	-327.66
	1093	218.8	4.60003E-001	-1.57728E-010	0.00000E+000	4.60000E-001	1.04072E-003	4	..........a	-327.66
	1094	219	4.49973E-001	-1.63819E-010	0.00000E+000	4.50000E-001	1.02272E-003	4	..........a	-327.66
	1095	219.2	4.39971E-001	-1.69456E-010	0.00000E+000	4.40000E-001	1.06482E-003	4	..........a	-327.66
	1096	219.4	4.29926E-001	-1.76376E-010	0.00000E+000	4.30000E-001	1.04832E-003	4	..........a	-327.66
	1097	219.6	4.20024E-001	-1.82240E-010	0.00000E+000	4.20000E-001	1.05282E-003	4	..........a	-327.66
	1098	219.8	4.09949E-001	-1.88951E-010	0.00000E+000	4.10000E-001	1.05272E-003	4	..........a	-327.66
	1099	220	3.99902E-001	-1.95745E-010	0.00000E+000	4.00000E-001	1.05172E-003	4	..........a	-327.66
	1100	220.2	3.89965E-001	-2.00795E-010	0.00000E+000	3.90000E-001	1.03812E-003	4	..........a	-327.66
	1101	220.4	3.79992E-001	-2.06946E-010	0.00000E+000	3.80000E-001	1.03102E-003	4	..........a	-327.66
	1102	220.6	3.70003E-001	-2.11716E-010	0.00000E+000	3.70000E-001	1.05242E-003	4	..........a	-327.66
	1103	220.8	3.59956E-001	-2.18283E-010	0.00000E+000	3.60000E-001	1.05142E-003	4	..........a	-327.66
	1104	221	3.49962E-001	-2.23891E-010	0.00000E+000	3.50000E-001	1.04482E-003	4	..........a	-327.66
	1105	221.2	3.40046E-001	-2.28524E-010	0.00000E+000	3.40000E-001	1.02392E-003	4	..........a	-327.66
	1106	221.4	3.29990E-001	-2.33499E-010	0.00000E+000	3.30000E-001	1.05142E-003	4	..........a	-327.66
	1107	221.6	3.20010E-001	-2.39137E-010	0.00000E+000	3.20000E-001	1.03412E-003	4	..........a	-327.66
	1108	221.8	3.09973E-001	-2.43772E-010	0.00000E+000	3.10000E-001	1.05492E-003	4	..........a	-327.66
	1109	222	3.00013E-001	-2.48873E-010	0.00000E+000	3.00000E-001	1.03902E-003	4	..........a	-327.66
	1110	222.2	2.90015E-001	-2.54723E-010	0.00000E+000	2.90000E-001	1.02572E-003	4	..........a	-327.66
	1111	222.4	2.79903E-001	-2.58907E-010	0.00000E+000	2.80000E-001	1.04892E-003	4	..........a	-327.66
	1112	222.6	2.69985E-001	-2.62245E-010	0.00000E+000	2.70000E-001	1.03062E-003	4	..........a	-327.66
	1113	222.8	2.60051E-001	-2.66046E-010	0.00000E+000	2.60000E-001	1.03252E-003	4	..........a	-327.66
	1114	223	2.49988E-001	-2.70991E-010	0.00000E+000	2.50000E-001	1.04302E-003	4	..........a	-327.66
	1115	223.2	2.39977E-001	-2.77068E-010	0.00000E+000	2.40000E-001	1.02092E-003	4	..........a	-327.66
	1116	223.4	2.29987E-001	-2.81492E-010	0.00000E+000	2.30000E-001	1.03592E-003	4	..........a	-327.66
	1117	223.6	2.20009E-001	-2.85941E-010	0.00000E+000	2.20000E-001	1.03792E-003	4	..........a	-327.66
	1118	223.8	2.10009E-001	-2.89535E-010	0.00000E+000	2.10000E-001	1.01462E-003	4	..........a	-327.66