Folder: GamryParser/data/raw/batch_data (part 17)

File: 20240509_K_GM0016_HL03_E03_CV50.DTA
EXPLAIN
TAG	CV
TITLE	LABEL	Cyclic Voltammetry	Test &Identifier
DATE	LABEL	5/9/2024	Date
TIME	LABEL	12:56:53	Time
NOTES	NOTES	1	&Notes...

PSTAT	PSTAT	REF600P-43058	Potentiostat
VINIT	POTEN	0.00000E+000	T	Initial &E (V)
VLIMIT1	POTEN	8.00000E-001	F	Scan Limit &1 (V)
VLIMIT2	POTEN	-6.00000E-001	F	Scan Limit &2 (V)
VFINAL	POTEN	0.00000E+000	T	Final &E (V)
SCANRATE	QUANT	4.99999E+001	&Scan Rate (mV/s)
STEPSIZE	QUANT	1.00000E+001	St&ep Size (mV)
CYCLES	IQUANT	4	C&ycles (#)
IMODE	SELECTOR	0	I/E Range &Mode
IRANGE	QUANT	1.00000E-005	&Max Current (mA)
AREA	QUANT	1.00000E+000	Electrode &Area (cm^2)
ELECTRODETYPE	SELECTOR	0	Electrode Type
STRIPPING	TOGGLE	F	Used for Stripping
POLARITY	TOGGLE	F	Signal Polarity
CONDIT	TWOPARAM	F	1.50000E+001	0.00000E+000	Conditionin&g	Time(s)	E(V)
DELAY	TWOPARAM	T	1.00000E+001	0.00000E+000	Init. De&lay	Time(s)	Stab.(mV/s)
EQDELAY	QUANT	1.00000E+001	Equil. &Time (s)
IRCOMP	SELECTOR	0	IRCom&p
PFCOR	QUANT	5.00000E+001	PF Corr. (ohm)
SAMPLINGMODE	SELECTOR	1	Sampling &Mode
OCVCURVE	TABLE	39
	Pt	T	Vf	Vm	Ach	Over	Temp
	#	s	V vs. Ref.	V	V	bits	deg C
	0	0.258333	-9.22112E-002	-9.22112E-002	2.38992E-004	..........a	-327.66
	1	0.516667	-9.22133E-002	-9.23194E-002	2.42592E-004	..........a	-327.66
	2	0.775	-9.22260E-002	-9.24251E-002	2.50592E-004	..........a	-327.66
	3	1.03333	-9.22622E-002	-9.25202E-002	2.35659E-004	..........a	-327.66
	4	1.29167	-9.23271E-002	-9.26347E-002	2.48126E-004	..........a	-327.66
	5	1.55	-9.24149E-002	-9.27318E-002	2.49592E-004	..........a	-327.66
	6	1.80833	-9.25148E-002	-9.28261E-002	2.54859E-004	..........a	-327.66
	7	2.06667	-9.26181E-002	-9.29238E-002	2.46259E-004	..........a	-327.66
	8	2.325	-9.27201E-002	-9.30310E-002	2.40792E-004	..........a	-327.66
	9	2.58333	-9.28200E-002	-9.31155E-002	2.43592E-004	..........a	-327.66
	10	2.84167	-9.29184E-002	-9.32063E-002	2.49659E-004	..........a	-327.66
	11	3.1	-9.30146E-002	-9.32927E-002	2.55126E-004	..........a	-327.66
	12	3.35833	-9.31077E-002	-9.33786E-002	2.37326E-004	..........a	-327.66
	13	3.61667	-9.31943E-002	-9.32886E-002	2.46259E-004	..........a	-327.66
	14	3.875	-9.32589E-002	-9.30704E-002	2.43259E-004	..........a	-327.66
	15	4.13333	-9.32713E-002	-9.28878E-002	2.44792E-004	..........a	-327.66
	16	4.39167	-9.32100E-002	-9.27226E-002	2.45392E-004	..........a	-327.66
	17	4.65	-9.30844E-002	-9.26237E-002	2.41459E-004	..........a	-327.66
	18	4.90833	-9.29300E-002	-9.25832E-002	2.55726E-004	..........a	-327.66
	19	5.16667	-9.27870E-002	-9.26132E-002	2.35526E-004	..........a	-327.66
	20	5.425	-9.26845E-002	-9.26753E-002	2.42526E-004	..........a	-327.66
	21	5.68333	-9.26364E-002	-9.27851E-002	2.32859E-004	..........a	-327.66
	22	5.94167	-9.26432E-002	-9.28951E-002	2.58726E-004	..........a	-327.66
	23	6.2	-9.26963E-002	-9.30183E-002	2.39392E-004	..........a	-327.66
	24	6.45833	-9.27830E-002	-9.31433E-002	2.52326E-004	..........a	-327.66
	25	6.71667	-9.28907E-002	-9.32838E-002	2.49259E-004	..........a	-327.66
	26	6.975	-9.30109E-002	-9.34131E-002	2.41726E-004	..........a	-327.66
	27	7.23333	-9.31384E-002	-9.35440E-002	2.49792E-004	..........a	-327.66
	28	7.49167	-9.32696E-002	-9.36730E-002	2.24059E-004	..........a	-327.66
	29	7.75	-9.34013E-002	-9.37951E-002	2.40526E-004	..........a	-327.66
	30	8.00833	-9.35318E-002	-9.39256E-002	2.41192E-004	..........a	-327.66
	31	8.26667	-9.36604E-002	-9.40494E-002	2.39859E-004	..........a	-327.66
	32	8.525	-9.37875E-002	-9.41688E-002	2.35126E-004	..........a	-327.66
	33	8.78333	-9.39131E-002	-9.42848E-002	2.37592E-004	..........a	-327.66
	34	9.04167	-9.40365E-002	-9.44051E-002	2.45592E-004	..........a	-327.66
	35	9.3	-9.41573E-002	-9.45112E-002	2.51592E-004	..........a	-327.66
	36	9.5583	-9.42755E-002	-9.46248E-002	2.31392E-004	..........a	-327.66
	37	9.8167	-9.43907E-002	-9.47287E-002	2.47192E-004	..........a	-327.66
	38	10.075	-9.45028E-002	-9.48200E-002	2.46592E-004	..........a	-327.66
EOC	QUANT	-0.0945028	Open Circuit (V)
PSTATMODEL	IQUANT	7	Pstat Model
PSTATSECTION	LABEL	REF600P-43058	Pstat Section
PSTATSERIALNO	LABEL	43058	Pstat Serial Number
CTRLMODE	IQUANT	1	Control Mode
ELECTROMETER	IQUANT	0	RE=0 or CS=1
IESTAB	IQUANT	2	I/E Stability
CASPEED	IQUANT	4	Control Amp Speed
CONVENTION	IQUANT	1	Current Convention
ICHRANGE	IQUANT	2	Ich Range
ICHRANGEMODE	TOGGLE	F	Ich Auto Range
ICHOFFSETENABLE	TOGGLE	F	Ich Offset Enable
ICHOFFSET	QUANT	0	Ich Offset (V)
ICHFILTER	IQUANT	2	Ich Filter
VCHRANGE	IQUANT	2	Vch Range
VCHRANGEMODE	TOGGLE	F	Vch Auto Range
VCHOFFSETENABLE	TOGGLE	F	Vch Offset Enable
VCHOFFSET	QUANT	0	Vch Offset (V)
VCHFILTER	IQUANT	2	Vch Filter
ACHRANGE	IQUANT	2	Ach Range
ACHOFFSETENABLE	TOGGLE	F	Ach Offset Enable
ACHOFFSET	QUANT	0	Ach Offset (V)
ACHFILTER	IQUANT	1	Ach Filter
IERANGELOWERLIMIT	IQUANT	1	I/E Range Lower Limit
IERANGEMODE	TOGGLE	T	I/E AutoRange
IERANGE	IQUANT	4	I/E Range
POSFEEDENABLE	TOGGLE	F	Positive Feedback IR Comp
POSFEEDRESISTANCE	QUANT	0	Positive Feedback Resistance (ohm)
ACHSELECT	IQUANT	4	Ach Select
SENSECABLEID	IQUANT	7	Sense Cable ID
PWRCABLEID	IQUANT	7	Power Cable ID
DCCALDATE	LABEL	3/22/2024	DC Calibration Date
ACCALDATE	LABEL	3/22/2024	AC Calibration Date
THERMOSELECT	IQUANT	1	Thermo Select
FRAMEWORKVERSION	LABEL	7.8.4	Framework Version
INSTRUMENTVERSION	LABEL	4.42	Instrument Version
CURVE1	TABLE
	Pt	T	Vf	Im	Vu	Sig	Ach	IERange	Over	Temp
	#	s	V vs. Ref.	A	V	V	V	#	bits	deg C
	0	0.2	-9.44419E-002	8.53228E-010	0.00000E+000	-9.45000E-002	1.01989E-003	5	..........a	-327.66
	3	0.8	-6.44054E-002	6.37558E-009	0.00000E+000	-6.45000E-002	1.00869E-003	5	..........a	-327.66
	6	1.4	-3.44719E-002	9.73978E-009	0.00000E+000	-3.45000E-002	9.83492E-004	5	..........a	-327.66
	9	2	-4.55931E-003	1.26741E-008	0.00000E+000	-4.49999E-003	9.95192E-004	5	..........a	-327.66
	12	2.6	2.54976E-002	1.55528E-008	0.00000E+000	2.55000E-002	1.01499E-003	5	..........a	-327.66
	15	3.2	5.55682E-002	1.85701E-008	0.00000E+000	5.55000E-002	1.02989E-003	5	..........a	-327.66
	18	3.8	8.55547E-002	2.18318E-008	0.00000E+000	8.55000E-002	9.85492E-004	5	..........a	-327.66
	21	4.4	1.15536E-001	2.56786E-008	0.00000E+000	1.15500E-001	1.01999E-003	5	..........a	-327.66
	24	5	1.45524E-001	3.09307E-008	0.00000E+000	1.45500E-001	1.01349E-003	5	..........a	-327.66
	27	5.6	1.75568E-001	7.49411E-008	0.00000E+000	1.75500E-001	1.01249E-003	5	..........a	-327.66
	30	6.2	2.05486E-001	4.51376E-008	0.00000E+000	2.05500E-001	1.01369E-003	5	..........a	-327.66
	33	6.8	2.35453E-001	4.86773E-008	0.00000E+000	2.35500E-001	1.03399E-003	5	..........a	-327.66
	36	7.4	2.65489E-001	5.43947E-008	0.00000E+000	2.65500E-001	1.00219E-003	5	..........a	-327.66
	39	8	2.95586E-001	6.04638E-008	0.00000E+000	2.95500E-001	1.00049E-003	5	..........a	-327.66
	42	8.6	3.25525E-001	6.71133E-008	0.00000E+000	3.25500E-001	9.81792E-004	5	..........a	-327.66
	45	9.2	3.55472E-001	7.48483E-008	0.00000E+000	3.55500E-001	1.01449E-003	5	..........a	-327.66
	48	9.8	3.85473E-001	8.38313E-008	0.00000E+000	3.85500E-001	1.00679E-003	5	..........a	-327.66
	51	10.4	4.15538E-001	9.40218E-008	0.00000E+000	4.15500E-001	9.97192E-004	5	..........a	-327.66
	54	11	4.45465E-001	1.04864E-007	0.00000E+000	4.45500E-001	9.80092E-004	5	..........a	-327.66
	57	11.6	4.75467E-001	1.16131E-007	0.00000E+000	4.75500E-001	1.00519E-003	5	..........a	-327.66
	60	12.2	5.05426E-001	1.27791E-007	0.00000E+000	5.05500E-001	1.02259E-003	5	..........a	-327.66
[...]
	1083	216.8	-4.49853E-001	-2.79399E-008	0.00000E+000	-4.50000E-001	1.01169E-003	5	..........a	-327.66
	1084	217	-4.39858E-001	-2.54926E-008	0.00000E+000	-4.40000E-001	1.02249E-003	5	..........a	-327.66
	1085	217.2	-4.29872E-001	-2.33621E-008	0.00000E+000	-4.30000E-001	1.03199E-003	5	..........a	-327.66
	1086	217.4	-4.19794E-001	-2.16816E-008	0.00000E+000	-4.20000E-001	9.93292E-004	5	..........a	-327.66
	1087	217.6	-4.09872E-001	-1.95364E-008	0.00000E+000	-4.10000E-001	1.02109E-003	5	..........a	-327.66
	1088	217.8	-3.99886E-001	-1.74990E-008	0.00000E+000	-4.00000E-001	1.00009E-003	5	..........a	-327.66
	1089	218	-3.89936E-001	-1.55821E-008	0.00000E+000	-3.90000E-001	1.03309E-003	5	..........a	-327.66
	1090	218.2	-3.79835E-001	-1.36521E-008	0.00000E+000	-3.80000E-001	1.00779E-003	5	..........a	-327.66
	1091	218.4	-3.69849E-001	-1.18060E-008	0.00000E+000	-3.70000E-001	1.02179E-003	5	..........a	-327.66
	1092	218.6	-3.59893E-001	-1.00426E-008	0.00000E+000	-3.60000E-001	1.02139E-003	5	..........a	-327.66
	1093	218.8	-3.49856E-001	-8.31897E-009	0.00000E+000	-3.50000E-001	1.01169E-003	5	..........a	-327.66
	1094	219	-3.39815E-001	-6.70540E-009	0.00000E+000	-3.40000E-001	9.97792E-004	5	..........a	-327.66
	1095	219.2	-3.29865E-001	-5.10633E-009	0.00000E+000	-3.30000E-001	1.00939E-003	5	..........a	-327.66
	1096	219.4	-3.19865E-001	-3.51918E-009	0.00000E+000	-3.20000E-001	1.01139E-003	5	..........a	-327.66
	1097	219.6	-3.09951E-001	-2.08217E-009	0.00000E+000	-3.10000E-001	1.01149E-003	5	..........a	-327.66
	1098	219.8	-2.99861E-001	-6.90099E-010	0.00000E+000	-3.00000E-001	9.97692E-004	5	..........a	-327.66
	1099	220	-2.89917E-001	7.51465E-010	0.00000E+000	-2.90000E-001	1.01269E-003	5	..........a	-327.66
	1100	220.2	-2.79918E-001	2.11659E-009	0.00000E+000	-2.80000E-001	1.01649E-003	5	..........a	-327.66
	1101	220.4	-2.69871E-001	3.37925E-009	0.00000E+000	-2.70000E-001	1.02049E-003	5	..........a	-327.66
	1102	220.6	-2.59813E-001	4.63833E-009	0.00000E+000	-2.60000E-001	1.00449E-003	5	..........a	-327.66
	1103	220.8	-2.49879E-001	5.82109E-009	0.00000E+000	-2.50000E-001	1.01589E-003	5	..........a	-327.66
	1104	221	-2.39915E-001	6.98715E-009	0.00000E+000	-2.40000E-001	1.02259E-003	5	..........a	-327.66
	1105	221.2	-2.29973E-001	8.13164E-009	0.00000E+000	-2.30000E-001	1.01919E-003	5	..........a	-327.66
	1106	221.4	-2.19874E-001	9.21877E-009	0.00000E+000	-2.20000E-001	1.00579E-003	5	..........a	-327.66
	1107	221.6	-2.09927E-001	1.02931E-008	0.00000E+000	-2.10000E-001	1.01039E-003	5	..........a	-327.66
	1108	221.8	-1.99970E-001	1.13680E-008	0.00000E+000	-2.00000E-001	1.02139E-003	5	..........a	-327.66
	1109	222	-1.90219E-001	1.24044E-008	0.00000E+000	-1.90000E-001	9.98692E-004	5	..........a	-327.66
	1110	222.2	-1.79915E-001	1.34473E-008	0.00000E+000	-1.80000E-001	9.90792E-004	5	..........a	-327.66
	1111	222.4	-1.69895E-001	1.44443E-008	0.00000E+000	-1.70000E-001	9.98792E-004	5	..........a	-327.66
	1112	222.6	-1.59991E-001	1.54021E-008	0.00000E+000	-1.60000E-001	1.00739E-003	5	..........a	-327.66
	1113	222.8	-1.49982E-001	1.64116E-008	0.00000E+000	-1.50000E-001	1.01249E-003	5	..........a	-327.66
	1114	223	-1.39897E-001	1.73628E-008	0.00000E+000	-1.40000E-001	1.01959E-003	5	..........a	-327.66
	1115	223.2	-1.29975E-001	1.83132E-008	0.00000E+000	-1.30000E-001	1.03709E-003	5	..........a	-327.66
	1116	223.4	-1.19959E-001	1.92588E-008	0.00000E+000	-1.20000E-001	1.01759E-003	5	..........a	-327.66
	1117	223.6	-1.10015E-001	2.01943E-008	0.00000E+000	-1.10000E-001	1.02429E-003	5	..........a	-327.66
	1118	223.8	-9.99073E-002	2.10968E-008	0.00000E+000	-1.00000E-001	1.00669E-003	5	..........a	-327.66

File: 20240509_S_GM0016_HL03_E05_CV50.DTA
EXPLAIN
TAG	CV
TITLE	LABEL	Cyclic Voltammetry	Test &Identifier
DATE	LABEL	5/9/2024	Date
TIME	LABEL	13:25:13	Time
NOTES	NOTES	1	&Notes...

PSTAT	PSTAT	REF600P-43058	Potentiostat
VINIT	POTEN	0.00000E+000	T	Initial &E (V)
VLIMIT1	POTEN	8.00000E-001	F	Scan Limit &1 (V)
VLIMIT2	POTEN	-6.00000E-001	F	Scan Limit &2 (V)
VFINAL	POTEN	0.00000E+000	T	Final &E (V)
SCANRATE	QUANT	4.99999E+001	&Scan Rate (mV/s)
STEPSIZE	QUANT	1.00000E+001	St&ep Size (mV)
CYCLES	IQUANT	4	C&ycles (#)
IMODE	SELECTOR	0	I/E Range &Mode
IRANGE	QUANT	1.00000E-005	&Max Current (mA)
AREA	QUANT	1.00000E+000	Electrode &Area (cm^2)
ELECTRODETYPE	SELECTOR	0	Electrode Type
STRIPPING	TOGGLE	F	Used for Stripping
POLARITY	TOGGLE	F	Signal Polarity
CONDIT	TWOPARAM	F	1.50000E+001	0.00000E+000	Conditionin&g	Time(s)	E(V)
DELAY	TWOPARAM	T	1.00000E+001	0.00000E+000	Init. De&lay	Time(s)	Stab.(mV/s)
EQDELAY	QUANT	1.00000E+001	Equil. &Time (s)
IRCOMP	SELECTOR	0	IRCom&p
PFCOR	QUANT	5.00000E+001	PF Corr. (ohm)
SAMPLINGMODE	SELECTOR	1	Sampling &Mode
OCVCURVE	TABLE	39
	Pt	T	Vf	Vm	Ach	Over	Temp
	#	s	V vs. Ref.	V	V	bits	deg C
	0	0.258333	-9.63987E-002	-9.63987E-002	2.51459E-004	..........a	-327.66
	1	0.516667	-9.64029E-002	-9.66170E-002	2.51192E-004	..........a	-327.66
	2	0.775	-9.64286E-002	-9.68300E-002	2.35792E-004	..........a	-327.66
	3	1.03333	-9.65021E-002	-9.70517E-002	2.51726E-004	..........a	-327.66
	4	1.29167	-9.66359E-002	-9.72689E-002	2.36059E-004	..........a	-327.66
	5	1.55	-9.68181E-002	-9.74715E-002	2.48726E-004	..........a	-327.66
	6	1.80833	-9.70260E-002	-9.76828E-002	2.54126E-004	..........a	-327.66
	7	2.06667	-9.72409E-002	-9.78857E-002	2.56126E-004	..........a	-327.66
	8	2.325	-9.74541E-002	-9.80928E-002	2.51326E-004	..........a	-327.66
	9	2.58333	-9.76635E-002	-9.82881E-002	2.42326E-004	..........a	-327.66
	10	2.84167	-9.78699E-002	-9.85053E-002	2.48859E-004	..........a	-327.66
	11	3.1	-9.80745E-002	-9.86962E-002	2.35859E-004	..........a	-327.66
	12	3.35833	-9.82782E-002	-9.88946E-002	2.51059E-004	..........a	-327.66
	13	3.61667	-9.84806E-002	-9.90950E-002	2.44326E-004	..........a	-327.66
	14	3.875	-9.86812E-002	-9.92931E-002	2.66192E-004	..........a	-327.66
	15	4.13333	-9.88805E-002	-9.94942E-002	2.56792E-004	..........a	-327.66
	16	4.39167	-9.90794E-002	-9.96893E-002	2.56926E-004	..........a	-327.66
	17	4.65	-9.92779E-002	-9.98728E-002	2.50126E-004	..........a	-327.66
	18	4.90833	-9.94748E-002	-1.00064E-001	2.47726E-004	..........a	-327.66
	19	5.16667	-9.96687E-002	-1.00254E-001	2.64592E-004	..........a	-327.66
	20	5.425	-9.98598E-002	-1.00435E-001	2.51992E-004	..........a	-327.66
	21	5.68333	-1.00049E-001	-1.00621E-001	2.42992E-004	..........a	-327.66
	22	5.94167	-1.00236E-001	-1.00806E-001	2.47992E-004	..........a	-327.66
	23	6.2	-1.00422E-001	-1.00974E-001	2.62192E-004	..........a	-327.66
	24	6.45833	-1.00605E-001	-1.01157E-001	2.56126E-004	..........a	-327.66
	25	6.71667	-1.00786E-001	-1.01333E-001	2.47992E-004	..........a	-327.66
	26	6.975	-1.00965E-001	-1.01513E-001	2.41792E-004	..........a	-327.66
	27	7.23333	-1.01142E-001	-1.01690E-001	2.53592E-004	..........a	-327.66
	28	7.49167	-1.01320E-001	-1.01860E-001	2.47926E-004	..........a	-327.66
	29	7.75	-1.01497E-001	-1.02007E-001	2.50192E-004	..........a	-327.66
	30	8.00833	-1.01669E-001	-1.02147E-001	2.44259E-004	..........a	-327.66
	31	8.26667	-1.01834E-001	-1.02294E-001	2.35392E-004	..........a	-327.66
	32	8.525	-1.01990E-001	-1.02454E-001	2.39392E-004	..........a	-327.66
	33	8.78333	-1.02140E-001	-1.02603E-001	2.51792E-004	..........a	-327.66
	34	9.04167	-1.02290E-001	-1.02763E-001	2.41459E-004	..........a	-327.66
	35	9.3	-1.02441E-001	-1.02921E-001	2.46526E-004	..........a	-327.66
	36	9.5583	-1.02595E-001	-1.03083E-001	2.48259E-004	..........a	-327.66
	37	9.8167	-1.02752E-001	-1.03247E-001	2.42459E-004	..........a	-327.66
	38	10.075	-1.02910E-001	-1.03403E-001	2.56126E-004	..........a	-327.66
EOC	QUANT	-0.1029105	Open Circuit (V)
PSTATMODEL	IQUANT	7	Pstat Model
PSTATSECTION	LABEL	REF600P-43058	Pstat Section
PSTATSERIALNO	LABEL	43058	Pstat Serial Number
CTRLMODE	IQUANT	1	Control Mode
ELECTROMETER	IQUANT	0	RE=0 or CS=1
IESTAB	IQUANT	2	I/E Stability
CASPEED	IQUANT	4	Control Amp Speed
CONVENTION	IQUANT	1	Current Convention
ICHRANGE	IQUANT	2	Ich Range
ICHRANGEMODE	TOGGLE	F	Ich Auto Range
ICHOFFSETENABLE	TOGGLE	F	Ich Offset Enable
ICHOFFSET	QUANT	0	Ich Offset (V)
ICHFILTER	IQUANT	2	Ich Filter
VCHRANGE	IQUANT	2	Vch Range
VCHRANGEMODE	TOGGLE	F	Vch Auto Range
VCHOFFSETENABLE	TOGGLE	F	Vch Offset Enable
VCHOFFSET	QUANT	0	Vch Offset (V)
VCHFILTER	IQUANT	2	Vch Filter
ACHRANGE	IQUANT	2	Ach Range
ACHOFFSETENABLE	TOGGLE	F	Ach Offset Enable
ACHOFFSET	QUANT	0	Ach Offset (V)
ACHFILTER	IQUANT	1	Ach Filter
IERANGELOWERLIMIT	IQUANT	1	I/E Range Lower Limit
IERANGEMODE	TOGGLE	T	I/E AutoRange
IERANGE	IQUANT	4	I/E Range
POSFEEDENABLE	TOGGLE	F	Positive Feedback IR Comp
POSFEEDRESISTANCE	QUANT	0	Positive Feedback Resistance (ohm)
ACHSELECT	IQUANT	4	Ach Select
SENSECABLEID	IQUANT	7	Sense Cable ID
PWRCABLEID	IQUANT	7	Power Cable ID
DCCALDATE	LABEL	3/22/2024	DC Calibration Date
ACCALDATE	LABEL	3/22/2024	AC Calibration Date
THERMOSELECT	IQUANT	1	Thermo Select
FRAMEWORKVERSION	LABEL	7.8.4	Framework Version
INSTRUMENTVERSION	LABEL	4.42	Instrument Version
CURVE1	TABLE
	Pt	T	Vf	Im	Vu	Sig	Ach	IERange	Over	Temp
	#	s	V vs. Ref.	A	V	V	V	#	bits	deg C
	0	0.2	-1.02838E-001	9.99454E-010	0.00000E+000	-1.02900E-001	1.03949E-003	5	..........a	-327.66
	3	0.8	-7.28297E-002	7.47248E-009	0.00000E+000	-7.29000E-002	1.01869E-003	5	..........a	-327.66
	6	1.4	-4.28145E-002	1.07524E-008	0.00000E+000	-4.29000E-002	1.00989E-003	5	..........a	-327.66
	9	2	-1.28560E-002	1.33783E-008	0.00000E+000	-1.29000E-002	1.02859E-003	5	..........a	-327.66
	12	2.6	1.71568E-002	1.58585E-008	0.00000E+000	1.71000E-002	1.02259E-003	5	..........a	-327.66
	15	3.2	4.71883E-002	1.85178E-008	0.00000E+000	4.71000E-002	1.01719E-003	5	..........a	-327.66
	18	3.8	7.71041E-002	2.15570E-008	0.00000E+000	7.71000E-002	1.01529E-003	5	..........a	-327.66
	21	4.4	1.07137E-001	2.54681E-008	0.00000E+000	1.07100E-001	1.01759E-003	5	..........a	-327.66
	24	5	1.37218E-001	3.06363E-008	0.00000E+000	1.37100E-001	1.01029E-003	5	..........a	-327.66
	27	5.6	1.67208E-001	3.74474E-008	0.00000E+000	1.67100E-001	1.00939E-003	5	..........a	-327.66
	30	6.2	1.97125E-001	4.53812E-008	0.00000E+000	1.97100E-001	1.03679E-003	5	..........a	-327.66
	33	6.8	2.27097E-001	5.30463E-008	0.00000E+000	2.27100E-001	1.01359E-003	5	..........a	-327.66
	36	7.4	2.57169E-001	5.95943E-008	0.00000E+000	2.57100E-001	1.02939E-003	5	..........a	-327.66
	39	8	2.87103E-001	6.61561E-008	0.00000E+000	2.87100E-001	1.02109E-003	5	..........a	-327.66
	42	8.6	3.17111E-001	7.28901E-008	0.00000E+000	3.17100E-001	1.01709E-003	5	..........a	-327.66
	45	9.2	3.47098E-001	7.99187E-008	0.00000E+000	3.47100E-001	1.01539E-003	5	..........a	-327.66
	48	9.8	3.77152E-001	8.73969E-008	0.00000E+000	3.77100E-001	1.00619E-003	5	..........a	-327.66
	51	10.4	4.07096E-001	9.52135E-008	0.00000E+000	4.07100E-001	1.00479E-003	5	..........a	-327.66
	54	11	4.37018E-001	1.03177E-007	0.00000E+000	4.37100E-001	1.01449E-003	5	..........a	-327.66
	57	11.6	4.67035E-001	1.11155E-007	0.00000E+000	4.67100E-001	1.00069E-003	5	..........a	-327.66
	60	12.2	4.97094E-001	1.18079E-007	0.00000E+000	4.97100E-001	1.00209E-003	5	..........a	-327.66
[...]
	1085	217.2	-4.49842E-001	-1.44490E-008	0.00000E+000	-4.50000E-001	9.99592E-004	5	..........a	-327.66
	1086	217.4	-4.39940E-001	-1.26772E-008	0.00000E+000	-4.40000E-001	1.00809E-003	5	..........a	-327.66
	1087	217.6	-4.29853E-001	-1.09770E-008	0.00000E+000	-4.30000E-001	1.02069E-003	5	..........a	-327.66
	1088	217.8	-4.19809E-001	-9.38982E-009	0.00000E+000	-4.20000E-001	9.87992E-004	5	..........a	-327.66
	1089	218	-4.09885E-001	-7.92640E-009	0.00000E+000	-4.10000E-001	1.01769E-003	5	..........a	-327.66
	1090	218.2	-3.99875E-001	-6.45873E-009	0.00000E+000	-4.00000E-001	9.99492E-004	5	..........a	-327.66
	1091	218.4	-3.89897E-001	-5.06026E-009	0.00000E+000	-3.90000E-001	1.01379E-003	5	..........a	-327.66
	1092	218.6	-3.79843E-001	-3.68872E-009	0.00000E+000	-3.80000E-001	9.99192E-004	5	..........a	-327.66
	1093	218.8	-3.69862E-001	-2.42598E-009	0.00000E+000	-3.70000E-001	9.90792E-004	5	..........a	-327.66
	1094	219	-3.59960E-001	-1.17827E-009	0.00000E+000	-3.60000E-001	1.02589E-003	5	..........a	-327.66
	1095	219.2	-3.49908E-001	-1.72842E-011	0.00000E+000	-3.50000E-001	9.90592E-004	5	..........a	-327.66
	1096	219.4	-3.39816E-001	1.21626E-009	0.00000E+000	-3.40000E-001	9.95292E-004	5	..........a	-327.66
	1097	219.6	-3.29955E-001	2.32423E-009	0.00000E+000	-3.30000E-001	1.02689E-003	5	..........a	-327.66
	1098	219.8	-3.19892E-001	3.43312E-009	0.00000E+000	-3.20000E-001	9.89192E-004	5	..........a	-327.66
	1099	220	-3.09919E-001	4.51046E-009	0.00000E+000	-3.10000E-001	1.00229E-003	5	..........a	-327.66
	1100	220.2	-2.99847E-001	5.52479E-009	0.00000E+000	-3.00000E-001	1.00009E-003	5	..........a	-327.66
	1101	220.4	-2.89921E-001	6.54779E-009	0.00000E+000	-2.90000E-001	1.03939E-003	5	..........a	-327.66
	1102	220.6	-2.79972E-001	7.55267E-009	0.00000E+000	-2.80000E-001	1.02289E-003	5	..........a	-327.66
	1103	220.8	-2.69888E-001	8.47990E-009	0.00000E+000	-2.70000E-001	9.95092E-004	5	..........a	-327.66
	1104	221	-2.59831E-001	9.41026E-009	0.00000E+000	-2.60000E-001	9.92792E-004	5	..........a	-327.66
	1105	221.2	-2.49890E-001	1.02754E-008	0.00000E+000	-2.50000E-001	9.95492E-004	5	..........a	-327.66
	1106	221.4	-2.39926E-001	1.11675E-008	0.00000E+000	-2.40000E-001	1.02119E-003	5	..........a	-327.66
	1107	221.6	-2.29924E-001	1.20115E-008	0.00000E+000	-2.30000E-001	1.00969E-003	5	..........a	-327.66
	1108	221.8	-2.19906E-001	1.28631E-008	0.00000E+000	-2.20000E-001	9.96392E-004	5	..........a	-327.66
	1109	222	-2.09939E-001	1.36665E-008	0.00000E+000	-2.10000E-001	1.02799E-003	5	..........a	-327.66
	1110	222.2	-1.99963E-001	1.45016E-008	0.00000E+000	-2.00000E-001	1.03149E-003	5	..........a	-327.66
	1111	222.4	-1.90112E-001	1.52785E-008	0.00000E+000	-1.90000E-001	9.85592E-004	5	..........a	-327.66
	1112	222.6	-1.79912E-001	1.60684E-008	0.00000E+000	-1.80000E-001	1.00679E-003	5	..........a	-327.66
	1113	222.8	-1.69889E-001	1.68595E-008	0.00000E+000	-1.70000E-001	1.02019E-003	5	..........a	-327.66
	1114	223	-1.60027E-001	1.76092E-008	0.00000E+000	-1.60000E-001	1.03709E-003	5	..........a	-327.66
	1115	223.2	-1.49973E-001	1.83649E-008	0.00000E+000	-1.50000E-001	1.02689E-003	5	..........a	-327.66
	1116	223.4	-1.39901E-001	1.90994E-008	0.00000E+000	-1.40000E-001	1.00449E-003	5	..........a	-327.66
	1117	223.6	-1.29934E-001	1.98424E-008	0.00000E+000	-1.30000E-001	1.02869E-003	5	..........a	-327.66
	1118	223.8	-1.19952E-001	2.05731E-008	0.00000E+000	-1.20000E-001	1.01569E-003	5	..........a	-327.66
	1119	224	-1.09957E-001	2.13001E-008	0.00000E+000	-1.10000E-001	1.00749E-003	5	..........a	-327.66
	1120	224.2	-9.98883E-002	2.20499E-008	0.00000E+000	-1.00000E-001	9.93292E-004	5	..........a	-327.66