Folder: GamryParser/data/raw/batch_data (part 18)

File: 20240509_ZZM_GM0016_HL03_E10_CV50.DTA
EXPLAIN
TAG	CV
TITLE	LABEL	Cyclic Voltammetry	Test &Identifier
DATE	LABEL	5/9/2024	Date
TIME	LABEL	14:30:38	Time
NOTES	NOTES	1	&Notes...

PSTAT	PSTAT	REF600P-43058	Potentiostat
VINIT	POTEN	0.00000E+000	T	Initial &E (V)
VLIMIT1	POTEN	8.00000E-001	F	Scan Limit &1 (V)
VLIMIT2	POTEN	-6.00000E-001	F	Scan Limit &2 (V)
VFINAL	POTEN	0.00000E+000	T	Final &E (V)
SCANRATE	QUANT	4.99999E+001	&Scan Rate (mV/s)
STEPSIZE	QUANT	1.00000E+001	St&ep Size (mV)
CYCLES	IQUANT	4	C&ycles (#)
IMODE	SELECTOR	0	I/E Range &Mode
IRANGE	QUANT	1.00000E-005	&Max Current (mA)
AREA	QUANT	1.00000E+000	Electrode &Area (cm^2)
ELECTRODETYPE	SELECTOR	0	Electrode Type
STRIPPING	TOGGLE	F	Used for Stripping
POLARITY	TOGGLE	F	Signal Polarity
CONDIT	TWOPARAM	F	1.50000E+001	0.00000E+000	Conditionin&g	Time(s)	E(V)
DELAY	TWOPARAM	T	1.00000E+001	0.00000E+000	Init. De&lay	Time(s)	Stab.(mV/s)
EQDELAY	QUANT	1.00000E+001	Equil. &Time (s)
IRCOMP	SELECTOR	0	IRCom&p
PFCOR	QUANT	5.00000E+001	PF Corr. (ohm)
SAMPLINGMODE	SELECTOR	1	Sampling &Mode
OCVCURVE	TABLE	39
	Pt	T	Vf	Vm	Ach	Over	Temp
	#	s	V vs. Ref.	V	V	bits	deg C
	0	0.258333	-2.21066E-001	-2.21066E-001	2.30326E-004	..........a	-327.66
	1	0.516667	-2.21071E-001	-2.21322E-001	2.38259E-004	..........a	-327.66
	2	0.775	-2.21101E-001	-2.21585E-001	2.32792E-004	..........a	-327.66
	3	1.03333	-2.21189E-001	-2.21840E-001	2.32992E-004	..........a	-327.66
	4	1.29167	-2.21348E-001	-2.22094E-001	2.26926E-004	..........a	-327.66
	5	1.55	-2.21565E-001	-2.22349E-001	2.40192E-004	..........a	-327.66
	6	1.80833	-2.21811E-001	-2.22597E-001	2.28326E-004	..........a	-327.66
	7	2.06667	-2.22068E-001	-2.22858E-001	2.23192E-004	..........a	-327.66
	8	2.325	-2.22325E-001	-2.23100E-001	2.24326E-004	..........a	-327.66
	9	2.58333	-2.22580E-001	-2.23356E-001	2.19592E-004	..........a	-327.66
	10	2.84167	-2.22833E-001	-2.23605E-001	2.32392E-004	..........a	-327.66
	11	3.1	-2.23084E-001	-2.23849E-001	2.32392E-004	..........a	-327.66
	12	3.35833	-2.23334E-001	-2.24095E-001	2.39126E-004	..........a	-327.66
	13	3.61667	-2.23583E-001	-2.24331E-001	2.27526E-004	..........a	-327.66
	14	3.875	-2.23829E-001	-2.24577E-001	2.24592E-004	..........a	-327.66
	15	4.13333	-2.24073E-001	-2.24814E-001	2.34726E-004	..........a	-327.66
	16	4.39167	-2.24315E-001	-2.25054E-001	2.31526E-004	..........a	-327.66
	17	4.65	-2.24556E-001	-2.25291E-001	2.35059E-004	..........a	-327.66
	18	4.90833	-2.24795E-001	-2.25531E-001	2.30392E-004	..........a	-327.66
	19	5.16667	-2.25035E-001	-2.25768E-001	2.22459E-004	..........a	-327.66
	20	5.425	-2.25273E-001	-2.25999E-001	2.35926E-004	..........a	-327.66
	21	5.68333	-2.25511E-001	-2.26235E-001	2.28592E-004	..........a	-327.66
	22	5.94167	-2.25747E-001	-2.26462E-001	2.35059E-004	..........a	-327.66
	23	6.2	-2.25981E-001	-2.26694E-001	2.28059E-004	..........a	-327.66
	24	6.45833	-2.26214E-001	-2.26924E-001	2.25726E-004	..........a	-327.66
	25	6.71667	-2.26445E-001	-2.27143E-001	2.25192E-004	..........a	-327.66
	26	6.975	-2.26675E-001	-2.27368E-001	2.27592E-004	..........a	-327.66
	27	7.23333	-2.26902E-001	-2.27592E-001	2.26792E-004	..........a	-327.66
	28	7.49167	-2.27127E-001	-2.27795E-001	2.27459E-004	..........a	-327.66
	29	7.75	-2.27349E-001	-2.28022E-001	2.40659E-004	..........a	-327.66
	30	8.00833	-2.27568E-001	-2.28250E-001	2.24126E-004	..........a	-327.66
	31	8.26667	-2.27787E-001	-2.28479E-001	2.22259E-004	..........a	-327.66
	32	8.525	-2.28009E-001	-2.28695E-001	2.33526E-004	..........a	-327.66
	33	8.78333	-2.28232E-001	-2.28915E-001	2.44659E-004	..........a	-327.66
	34	9.04167	-2.28456E-001	-2.29138E-001	2.37126E-004	..........a	-327.66
	35	9.3	-2.28678E-001	-2.29361E-001	2.20059E-004	..........a	-327.66
	36	9.5583	-2.28900E-001	-2.29580E-001	2.17392E-004	..........a	-327.66
	37	9.8167	-2.29121E-001	-2.29796E-001	2.33126E-004	..........a	-327.66
	38	10.075	-2.29342E-001	-2.30012E-001	2.30792E-004	..........a	-327.66
EOC	QUANT	-0.2293416	Open Circuit (V)
PSTATMODEL	IQUANT	7	Pstat Model
PSTATSECTION	LABEL	REF600P-43058	Pstat Section
PSTATSERIALNO	LABEL	43058	Pstat Serial Number
CTRLMODE	IQUANT	1	Control Mode
ELECTROMETER	IQUANT	0	RE=0 or CS=1
IESTAB	IQUANT	2	I/E Stability
CASPEED	IQUANT	4	Control Amp Speed
CONVENTION	IQUANT	1	Current Convention
ICHRANGE	IQUANT	2	Ich Range
ICHRANGEMODE	TOGGLE	F	Ich Auto Range
ICHOFFSETENABLE	TOGGLE	F	Ich Offset Enable
ICHOFFSET	QUANT	0	Ich Offset (V)
ICHFILTER	IQUANT	2	Ich Filter
VCHRANGE	IQUANT	2	Vch Range
VCHRANGEMODE	TOGGLE	F	Vch Auto Range
VCHOFFSETENABLE	TOGGLE	F	Vch Offset Enable
VCHOFFSET	QUANT	0	Vch Offset (V)
VCHFILTER	IQUANT	2	Vch Filter
ACHRANGE	IQUANT	2	Ach Range
ACHOFFSETENABLE	TOGGLE	F	Ach Offset Enable
ACHOFFSET	QUANT	0	Ach Offset (V)
ACHFILTER	IQUANT	1	Ach Filter
IERANGELOWERLIMIT	IQUANT	1	I/E Range Lower Limit
IERANGEMODE	TOGGLE	T	I/E AutoRange
IERANGE	IQUANT	4	I/E Range
POSFEEDENABLE	TOGGLE	F	Positive Feedback IR Comp
POSFEEDRESISTANCE	QUANT	0	Positive Feedback Resistance (ohm)
ACHSELECT	IQUANT	4	Ach Select
SENSECABLEID	IQUANT	7	Sense Cable ID
PWRCABLEID	IQUANT	7	Power Cable ID
DCCALDATE	LABEL	3/22/2024	DC Calibration Date
ACCALDATE	LABEL	3/22/2024	AC Calibration Date
THERMOSELECT	IQUANT	1	Thermo Select
FRAMEWORKVERSION	LABEL	7.8.4	Framework Version
INSTRUMENTVERSION	LABEL	4.42	Instrument Version
CURVE1	TABLE
	Pt	T	Vf	Im	Vu	Sig	Ach	IERange	Over	Temp
	#	s	V vs. Ref.	A	V	V	V	#	bits	deg C
	0	0.2	-2.29278E-001	2.55548E-009	0.00000E+000	-2.29350E-001	9.90492E-004	5	..........a	-327.66
	3	0.8	-1.99299E-001	1.39282E-008	0.00000E+000	-1.99350E-001	9.93692E-004	5	..........a	-327.66
	6	1.4	-1.69308E-001	2.14809E-008	0.00000E+000	-1.69350E-001	9.99692E-004	5	..........a	-327.66
	9	2	-1.39317E-001	2.82955E-008	0.00000E+000	-1.39350E-001	9.76392E-004	5	..........a	-327.66
	12	2.6	-1.09230E-001	3.48666E-008	0.00000E+000	-1.09350E-001	9.91192E-004	5	..........a	-327.66
	15	3.2	-7.93311E-002	4.13260E-008	0.00000E+000	-7.93500E-002	9.82992E-004	5	..........a	-327.66
	18	3.8	-4.93320E-002	4.79359E-008	0.00000E+000	-4.93500E-002	9.93992E-004	5	..........a	-327.66
	21	4.4	-1.93430E-002	5.48190E-008	0.00000E+000	-1.93500E-002	9.90392E-004	5	..........a	-327.66
	24	5	1.07421E-002	6.23045E-008	0.00000E+000	1.06500E-002	9.78092E-004	5	..........a	-327.66
	27	5.6	4.06837E-002	7.07860E-008	0.00000E+000	4.06500E-002	9.95692E-004	5	..........a	-327.66
	30	6.2	7.06431E-002	8.06875E-008	0.00000E+000	7.06500E-002	1.01199E-003	5	..........a	-327.66
	33	6.8	1.00653E-001	9.24988E-008	0.00000E+000	1.00650E-001	9.84992E-004	5	..........a	-327.66
	36	7.4	1.30757E-001	1.06850E-007	0.00000E+000	1.30650E-001	1.01019E-003	5	..........a	-327.66
	39	8	1.60667E-001	1.24065E-007	0.00000E+000	1.60650E-001	9.89992E-004	5	..........a	-327.66
	42	8.6	1.90656E-001	1.44960E-007	0.00000E+000	1.90650E-001	9.69292E-004	5	..........a	-327.66
	45	9.2	2.20622E-001	1.64018E-007	0.00000E+000	2.20650E-001	9.88992E-004	5	..........a	-327.66
	48	9.8	2.50722E-001	1.78984E-007	0.00000E+000	2.50650E-001	9.83992E-004	5	..........a	-327.66
	51	10.4	2.80583E-001	1.91652E-007	0.00000E+000	2.80650E-001	9.87092E-004	5	..........a	-327.66
	54	11	3.10564E-001	2.04624E-007	0.00000E+000	3.10650E-001	9.89792E-004	5	..........a	-327.66
	57	11.6	3.40596E-001	2.21297E-007	0.00000E+000	3.40650E-001	9.88592E-004	5	..........a	-327.66
	60	12.2	3.70605E-001	2.41274E-007	0.00000E+000	3.70650E-001	9.65492E-004	5	..........a	-327.66
[...]
	1085	217.2	-5.79784E-001	-1.24161E-007	0.00000E+000	-5.80000E-001	9.80392E-004	5	..........a	-327.66
	1086	217.4	-5.69818E-001	-1.11135E-007	0.00000E+000	-5.70000E-001	9.72192E-004	5	..........a	-327.66
	1087	217.6	-5.59838E-001	-1.00663E-007	0.00000E+000	-5.60000E-001	9.75692E-004	5	..........a	-327.66
	1088	217.8	-5.49839E-001	-9.17208E-008	0.00000E+000	-5.50000E-001	9.78792E-004	5	..........a	-327.66
	1089	218	-5.39764E-001	-8.40451E-008	0.00000E+000	-5.40000E-001	9.73592E-004	5	..........a	-327.66
	1090	218.2	-5.29825E-001	-7.72364E-008	0.00000E+000	-5.30000E-001	9.81192E-004	5	..........a	-327.66
	1091	218.4	-5.19811E-001	-7.12234E-008	0.00000E+000	-5.20000E-001	9.67192E-004	5	..........a	-327.66
	1092	218.6	-5.09832E-001	-6.57692E-008	0.00000E+000	-5.10000E-001	9.78492E-004	5	..........a	-327.66
	1093	218.8	-4.99812E-001	-6.08010E-008	0.00000E+000	-5.00000E-001	9.57392E-004	5	..........a	-327.66
	1094	219	-4.89835E-001	-5.62055E-008	0.00000E+000	-4.90000E-001	9.72592E-004	5	..........a	-327.66
	1095	219.2	-4.79828E-001	-5.18607E-008	0.00000E+000	-4.80000E-001	9.67792E-004	5	..........a	-327.66
	1096	219.4	-4.69840E-001	-4.78768E-008	0.00000E+000	-4.70000E-001	9.67292E-004	5	..........a	-327.66
	1097	219.6	-4.59818E-001	-4.40541E-008	0.00000E+000	-4.60000E-001	9.58092E-004	5	..........a	-327.66
	1098	219.8	-4.49840E-001	-4.04240E-008	0.00000E+000	-4.50000E-001	9.75592E-004	5	..........a	-327.66
	1099	220	-4.39869E-001	-3.69260E-008	0.00000E+000	-4.40000E-001	9.70292E-004	5	..........a	-327.66
	1100	220.2	-4.29856E-001	-3.36401E-008	0.00000E+000	-4.30000E-001	9.69392E-004	5	..........a	-327.66
	1101	220.4	-4.19808E-001	-3.05092E-008	0.00000E+000	-4.20000E-001	9.73792E-004	5	..........a	-327.66
	1102	220.6	-4.09886E-001	-2.73563E-008	0.00000E+000	-4.10000E-001	9.76892E-004	5	..........a	-327.66
	1103	220.8	-3.99854E-001	-2.43493E-008	0.00000E+000	-4.00000E-001	9.70292E-004	5	..........a	-327.66
	1104	221	-3.89905E-001	-2.14505E-008	0.00000E+000	-3.90000E-001	9.76492E-004	5	..........a	-327.66
	1105	221.2	-3.79836E-001	-1.85778E-008	0.00000E+000	-3.80000E-001	9.69992E-004	5	..........a	-327.66
	1106	221.4	-3.69841E-001	-1.57717E-008	0.00000E+000	-3.70000E-001	9.67292E-004	5	..........a	-327.66
	1107	221.6	-3.59899E-001	-1.31017E-008	0.00000E+000	-3.60000E-001	9.70092E-004	5	..........a	-327.66
	1108	221.8	-3.49873E-001	-1.04413E-008	0.00000E+000	-3.50000E-001	9.77992E-004	5	..........a	-327.66
	1109	222	-3.39824E-001	-7.79594E-009	0.00000E+000	-3.40000E-001	9.70792E-004	5	..........a	-327.66
	1110	222.2	-3.29876E-001	-5.20925E-009	0.00000E+000	-3.30000E-001	9.73792E-004	5	..........a	-327.66
	1111	222.4	-3.19880E-001	-2.64197E-009	0.00000E+000	-3.20000E-001	9.67392E-004	5	..........a	-327.66
	1112	222.6	-3.09934E-001	-1.59959E-010	0.00000E+000	-3.10000E-001	9.57492E-004	5	..........a	-327.66
	1113	222.8	-2.99889E-001	2.42696E-009	0.00000E+000	-3.00000E-001	9.63392E-004	5	..........a	-327.66
	1114	223	-2.89911E-001	4.91824E-009	0.00000E+000	-2.90000E-001	9.85592E-004	5	..........a	-327.66
	1115	223.2	-2.79941E-001	7.34080E-009	0.00000E+000	-2.80000E-001	9.77092E-004	5	..........a	-327.66
	1116	223.4	-2.69876E-001	9.72785E-009	0.00000E+000	-2.70000E-001	9.83192E-004	5	..........a	-327.66
	1117	223.6	-2.59827E-001	1.20319E-008	0.00000E+000	-2.60000E-001	9.69892E-004	5	..........a	-327.66
	1118	223.8	-2.49902E-001	1.44328E-008	0.00000E+000	-2.50000E-001	9.70392E-004	5	..........a	-327.66
	1119	224	-2.39902E-001	1.67775E-008	0.00000E+000	-2.40000E-001	9.53092E-004	5	..........a	-327.66
	1120	224.2	-2.29956E-001	1.90069E-008	0.00000E+000	-2.30000E-001	9.78692E-004	5	..........a	-327.66

File: 20240509_ZZU_GM0016_HL03_E12_CV50.DTA
EXPLAIN
TAG	CV
TITLE	LABEL	Cyclic Voltammetry	Test &Identifier
DATE	LABEL	5/9/2024	Date
TIME	LABEL	14:55:41	Time
NOTES	NOTES	1	&Notes...

PSTAT	PSTAT	REF600P-43058	Potentiostat
VINIT	POTEN	0.00000E+000	T	Initial &E (V)
VLIMIT1	POTEN	8.00000E-001	F	Scan Limit &1 (V)
VLIMIT2	POTEN	-6.00000E-001	F	Scan Limit &2 (V)
VFINAL	POTEN	0.00000E+000	T	Final &E (V)
SCANRATE	QUANT	4.99999E+001	&Scan Rate (mV/s)
STEPSIZE	QUANT	1.00000E+001	St&ep Size (mV)
CYCLES	IQUANT	4	C&ycles (#)
IMODE	SELECTOR	0	I/E Range &Mode
IRANGE	QUANT	1.00000E-005	&Max Current (mA)
AREA	QUANT	1.00000E+000	Electrode &Area (cm^2)
ELECTRODETYPE	SELECTOR	0	Electrode Type
STRIPPING	TOGGLE	F	Used for Stripping
POLARITY	TOGGLE	F	Signal Polarity
CONDIT	TWOPARAM	F	1.50000E+001	0.00000E+000	Conditionin&g	Time(s)	E(V)
DELAY	TWOPARAM	T	1.00000E+001	0.00000E+000	Init. De&lay	Time(s)	Stab.(mV/s)
EQDELAY	QUANT	1.00000E+001	Equil. &Time (s)
IRCOMP	SELECTOR	0	IRCom&p
PFCOR	QUANT	5.00000E+001	PF Corr. (ohm)
SAMPLINGMODE	SELECTOR	1	Sampling &Mode
OCVCURVE	TABLE	39
	Pt	T	Vf	Vm	Ach	Over	Temp
	#	s	V vs. Ref.	V	V	bits	deg C
	0	0.258333	-5.50999E-002	-5.50999E-002	2.11192E-004	..........a	-327.66
	1	0.516667	-5.51036E-002	-5.52926E-002	2.10059E-004	..........a	-327.66
	2	0.775	-5.51264E-002	-5.54869E-002	2.04726E-004	..........a	-327.66
	3	1.03333	-5.51919E-002	-5.56859E-002	2.02459E-004	..........a	-327.66
	4	1.29167	-5.53117E-002	-5.58752E-002	2.05726E-004	..........a	-327.66
	5	1.55	-5.54751E-002	-5.60704E-002	1.98859E-004	..........a	-327.66
	6	1.80833	-5.56619E-002	-5.62480E-002	2.08526E-004	..........a	-327.66
	7	2.06667	-5.58547E-002	-5.64043E-002	2.05526E-004	..........a	-327.66
	8	2.325	-5.60432E-002	-5.65829E-002	2.08792E-004	..........a	-327.66
	9	2.58333	-5.62234E-002	-5.67389E-002	2.09792E-004	..........a	-327.66
	10	2.84167	-5.63962E-002	-5.69106E-002	2.19192E-004	..........a	-327.66
	11	3.1	-5.65647E-002	-5.70891E-002	2.14259E-004	..........a	-327.66
	12	3.35833	-5.67327E-002	-5.72753E-002	2.07126E-004	..........a	-327.66
	13	3.61667	-5.69037E-002	-5.74472E-002	2.12126E-004	..........a	-327.66
	14	3.875	-5.70787E-002	-5.76231E-002	2.19059E-004	..........a	-327.66
	15	4.13333	-5.72558E-002	-5.77967E-002	2.06859E-004	..........a	-327.66
	16	4.39167	-5.74328E-002	-5.79731E-002	1.94726E-004	..........a	-327.66
	17	4.65	-5.76088E-002	-5.81482E-002	2.02859E-004	..........a	-327.66
	18	4.90833	-5.77834E-002	-5.82836E-002	2.02192E-004	..........a	-327.66
	19	5.16667	-5.79543E-002	-5.84424E-002	2.07926E-004	..........a	-327.66
	20	5.425	-5.81190E-002	-5.86071E-002	1.99992E-004	..........a	-327.66
	21	5.68333	-5.82780E-002	-5.87599E-002	2.03259E-004	..........a	-327.66
	22	5.94167	-5.84349E-002	-5.89164E-002	2.11859E-004	..........a	-327.66
	23	6.2	-5.85915E-002	-5.90752E-002	2.11592E-004	..........a	-327.66
	24	6.45833	-5.87462E-002	-5.91186E-002	2.05259E-004	..........a	-327.66
	25	6.71667	-5.88896E-002	-5.91544E-002	2.14326E-004	..........a	-327.66
	26	6.975	-5.90081E-002	-5.92247E-002	2.15459E-004	..........a	-327.66
	27	7.23333	-5.90968E-002	-5.92982E-002	2.12526E-004	..........a	-327.66
	28	7.49167	-5.91668E-002	-5.94196E-002	1.95592E-004	..........a	-327.66
	29	7.75	-5.92364E-002	-5.95510E-002	2.15926E-004	..........a	-327.66
	30	8.00833	-5.93205E-002	-5.96977E-002	2.22726E-004	..........a	-327.66
	31	8.26667	-5.94255E-002	-5.98392E-002	2.04459E-004	..........a	-327.66
	32	8.525	-5.95488E-002	-5.99637E-002	2.13859E-004	..........a	-327.66
	33	8.78333	-5.96825E-002	-6.00888E-002	2.10792E-004	..........a	-327.66
	34	9.04167	-5.98182E-002	-6.02238E-002	2.06526E-004	..........a	-327.66
	35	9.3	-5.99514E-002	-6.03512E-002	2.08726E-004	..........a	-327.66
	36	9.5583	-6.00826E-002	-6.04958E-002	2.06659E-004	..........a	-327.66
	37	9.8167	-6.02142E-002	-6.06414E-002	2.00659E-004	..........a	-327.66
	38	10.075	-6.03492E-002	-6.08066E-002	2.06326E-004	..........a	-327.66
EOC	QUANT	-0.0603492	Open Circuit (V)
PSTATMODEL	IQUANT	7	Pstat Model
PSTATSECTION	LABEL	REF600P-43058	Pstat Section
PSTATSERIALNO	LABEL	43058	Pstat Serial Number
CTRLMODE	IQUANT	1	Control Mode
ELECTROMETER	IQUANT	0	RE=0 or CS=1
IESTAB	IQUANT	2	I/E Stability
CASPEED	IQUANT	4	Control Amp Speed
CONVENTION	IQUANT	1	Current Convention
ICHRANGE	IQUANT	2	Ich Range
ICHRANGEMODE	TOGGLE	F	Ich Auto Range
ICHOFFSETENABLE	TOGGLE	F	Ich Offset Enable
ICHOFFSET	QUANT	0	Ich Offset (V)
ICHFILTER	IQUANT	2	Ich Filter
VCHRANGE	IQUANT	2	Vch Range
VCHRANGEMODE	TOGGLE	F	Vch Auto Range
VCHOFFSETENABLE	TOGGLE	F	Vch Offset Enable
VCHOFFSET	QUANT	0	Vch Offset (V)
VCHFILTER	IQUANT	2	Vch Filter
ACHRANGE	IQUANT	2	Ach Range
ACHOFFSETENABLE	TOGGLE	F	Ach Offset Enable
ACHOFFSET	QUANT	0	Ach Offset (V)
ACHFILTER	IQUANT	1	Ach Filter
IERANGELOWERLIMIT	IQUANT	1	I/E Range Lower Limit
IERANGEMODE	TOGGLE	T	I/E AutoRange
IERANGE	IQUANT	4	I/E Range
POSFEEDENABLE	TOGGLE	F	Positive Feedback IR Comp
POSFEEDRESISTANCE	QUANT	0	Positive Feedback Resistance (ohm)
ACHSELECT	IQUANT	4	Ach Select
SENSECABLEID	IQUANT	7	Sense Cable ID
PWRCABLEID	IQUANT	7	Power Cable ID
DCCALDATE	LABEL	3/22/2024	DC Calibration Date
ACCALDATE	LABEL	3/22/2024	AC Calibration Date
THERMOSELECT	IQUANT	1	Thermo Select
FRAMEWORKVERSION	LABEL	7.8.4	Framework Version
INSTRUMENTVERSION	LABEL	4.42	Instrument Version
CURVE1	TABLE
	Pt	T	Vf	Im	Vu	Sig	Ach	IERange	Over	Temp
	#	s	V vs. Ref.	A	V	V	V	#	bits	deg C
	0	0.2	-6.02600E-002	2.04972E-009	0.00000E+000	-6.03500E-002	9.62492E-004	5	..........a	-327.66
	3	0.8	-3.03113E-002	2.20228E-008	0.00000E+000	-3.03500E-002	9.46292E-004	5	..........a	-327.66
	6	1.4	-3.06358E-004	3.49842E-008	0.00000E+000	-3.49998E-004	9.56892E-004	5	..........a	-327.66
	9	2	2.97660E-002	4.65552E-008	0.00000E+000	2.96500E-002	9.46192E-004	5	..........a	-327.66
	12	2.6	5.97027E-002	5.76195E-008	0.00000E+000	5.96500E-002	9.57992E-004	5	..........a	-327.66
	15	3.2	8.96826E-002	6.90210E-008	0.00000E+000	8.96500E-002	9.48792E-004	5	..........a	-327.66
	18	3.8	1.19651E-001	8.15722E-008	0.00000E+000	1.19650E-001	9.65092E-004	5	..........a	-327.66
	21	4.4	1.49751E-001	9.63846E-008	0.00000E+000	1.49650E-001	9.53692E-004	5	..........a	-327.66
	24	5	1.79633E-001	1.13472E-007	0.00000E+000	1.79650E-001	9.55892E-004	5	..........a	-327.66
	27	5.6	2.09584E-001	1.30961E-007	0.00000E+000	2.09650E-001	9.63792E-004	5	..........a	-327.66
	30	6.2	2.39655E-001	1.46573E-007	0.00000E+000	2.39650E-001	9.47192E-004	5	..........a	-327.66
	33	6.8	2.69637E-001	1.51713E-007	0.00000E+000	2.69650E-001	9.50592E-004	5	..........a	-327.66
	36	7.4	2.99570E-001	1.62947E-007	0.00000E+000	2.99650E-001	9.56792E-004	5	..........a	-327.66
	39	8	3.29562E-001	1.77161E-007	0.00000E+000	3.29650E-001	9.65692E-004	5	..........a	-327.66
	42	8.6	3.59620E-001	1.96895E-007	0.00000E+000	3.59650E-001	9.61592E-004	5	..........a	-327.66
	45	9.2	3.89583E-001	2.11166E-007	0.00000E+000	3.89650E-001	9.51692E-004	5	..........a	-327.66
	48	9.8	4.19544E-001	2.27745E-007	0.00000E+000	4.19650E-001	9.53992E-004	5	..........a	-327.66
	51	10.4	4.49517E-001	2.46478E-007	0.00000E+000	4.49650E-001	9.55792E-004	5	..........a	-327.66
	54	11	4.79566E-001	2.65684E-007	0.00000E+000	4.79650E-001	9.66992E-004	5	..........a	-327.66
	57	11.6	5.09477E-001	2.85607E-007	0.00000E+000	5.09650E-001	9.44892E-004	5	..........a	-327.66
	60	12.2	5.39498E-001	3.06411E-007	0.00000E+000	5.39650E-001	9.66492E-004	5	..........a	-327.66
[...]
	1085	217.2	-4.09832E-001	-6.46051E-008	0.00000E+000	-4.10000E-001	9.61292E-004	5	..........a	-327.66
	1086	217.4	-3.99839E-001	-5.95200E-008	0.00000E+000	-4.00000E-001	9.53192E-004	5	..........a	-327.66
	1087	217.6	-3.89868E-001	-5.46542E-008	0.00000E+000	-3.90000E-001	9.69592E-004	5	..........a	-327.66
	1088	217.8	-3.79820E-001	-4.98759E-008	0.00000E+000	-3.80000E-001	9.44792E-004	5	..........a	-327.66
	1089	218	-3.69836E-001	-4.51796E-008	0.00000E+000	-3.70000E-001	9.63292E-004	5	..........a	-327.66
	1090	218.2	-3.59867E-001	-4.06664E-008	0.00000E+000	-3.60000E-001	9.79792E-004	5	..........a	-327.66
	1091	218.4	-3.49860E-001	-3.63063E-008	0.00000E+000	-3.50000E-001	9.62092E-004	5	..........a	-327.66
	1092	218.6	-3.39819E-001	-3.18885E-008	0.00000E+000	-3.40000E-001	9.59992E-004	5	..........a	-327.66
	1093	218.8	-3.29915E-001	-2.75880E-008	0.00000E+000	-3.30000E-001	9.79292E-004	5	..........a	-327.66
	1094	219	-3.19859E-001	-2.34842E-008	0.00000E+000	-3.20000E-001	9.49392E-004	5	..........a	-327.66
	1095	219.2	-3.09879E-001	-1.93636E-008	0.00000E+000	-3.10000E-001	9.70092E-004	5	..........a	-327.66
	1096	219.4	-2.99847E-001	-1.53965E-008	0.00000E+000	-3.00000E-001	9.68092E-004	5	..........a	-327.66
	1097	219.6	-2.89892E-001	-1.15687E-008	0.00000E+000	-2.90000E-001	9.65592E-004	5	..........a	-327.66
	1098	219.8	-2.79911E-001	-7.67876E-009	0.00000E+000	-2.80000E-001	9.72892E-004	5	..........a	-327.66
	1099	220	-2.69862E-001	-3.91072E-009	0.00000E+000	-2.70000E-001	9.51992E-004	5	..........a	-327.66
	1100	220.2	-2.59831E-001	-2.45093E-010	0.00000E+000	-2.60000E-001	9.56292E-004	5	..........a	-327.66
	1101	220.4	-2.49914E-001	3.48244E-009	0.00000E+000	-2.50000E-001	9.70492E-004	5	..........a	-327.66
	1102	220.6	-2.39912E-001	6.91759E-009	0.00000E+000	-2.40000E-001	9.57292E-004	5	..........a	-327.66
	1103	220.8	-2.29951E-001	1.04374E-008	0.00000E+000	-2.30000E-001	9.61192E-004	5	..........a	-327.66
	1104	221	-2.19893E-001	1.39758E-008	0.00000E+000	-2.20000E-001	9.64492E-004	5	..........a	-327.66
	1105	221.2	-2.09911E-001	1.73763E-008	0.00000E+000	-2.10000E-001	9.66592E-004	5	..........a	-327.66
	1106	221.4	-1.99962E-001	2.07399E-008	0.00000E+000	-2.00000E-001	9.68292E-004	5	..........a	-327.66
	1107	221.6	-1.89946E-001	2.40879E-008	0.00000E+000	-1.90000E-001	9.65892E-004	5	..........a	-327.66
	1108	221.8	-1.79917E-001	2.73791E-008	0.00000E+000	-1.80000E-001	9.51792E-004	5	..........a	-327.66
	1109	222	-1.69910E-001	3.05866E-008	0.00000E+000	-1.70000E-001	9.60792E-004	5	..........a	-327.66
	1110	222.2	-1.60040E-001	3.37924E-008	0.00000E+000	-1.60000E-001	9.77292E-004	5	..........a	-327.66
	1111	222.4	-1.49967E-001	3.69790E-008	0.00000E+000	-1.50000E-001	9.62392E-004	5	..........a	-327.66
	1112	222.6	-1.39955E-001	4.00541E-008	0.00000E+000	-1.40000E-001	9.58092E-004	5	..........a	-327.66
	1113	222.8	-1.29983E-001	4.31953E-008	0.00000E+000	-1.30000E-001	9.70092E-004	5	..........a	-327.66
	1114	223	-1.19963E-001	4.62608E-008	0.00000E+000	-1.20000E-001	9.75192E-004	5	..........a	-327.66
	1115	223.2	-1.09992E-001	4.93137E-008	0.00000E+000	-1.10000E-001	9.59092E-004	5	..........a	-327.66
	1116	223.4	-9.99373E-002	5.23370E-008	0.00000E+000	-1.00000E-001	9.59492E-004	5	..........a	-327.66
	1117	223.6	-8.99298E-002	5.52792E-008	0.00000E+000	-9.00000E-002	9.51892E-004	5	..........a	-327.66
	1118	223.8	-7.99828E-002	5.82428E-008	0.00000E+000	-8.00000E-002	9.68492E-004	5	..........a	-327.66
	1119	224	-6.99502E-002	6.11229E-008	0.00000E+000	-7.00000E-002	9.64392E-004	5	..........a	-327.66
	1120	224.2	-5.99557E-002	6.40805E-008	0.00000E+000	-6.00000E-002	9.66192E-004	5	..........a	-327.66