Folder: GamryParser/data/raw/batch_data (part 11)

File: 20240424_L_GM0016_HL03_E03_CV50K.DTA
EXPLAIN
TAG	CV
TITLE	LABEL	Cyclic Voltammetry	Test &Identifier
DATE	LABEL	4/24/2024	Date
TIME	LABEL	17:23:41	Time
NOTES	NOTES	1	&Notes...

PSTAT	PSTAT	REF600P-43058	Potentiostat
VINIT	POTEN	0.00000E+000	T	Initial &E (V)
VLIMIT1	POTEN	-6.00000E-001	F	Scan Limit &1 (V)
VLIMIT2	POTEN	8.00000E-001	F	Scan Limit &2 (V)
VFINAL	POTEN	0.00000E+000	T	Final &E (V)
SCANRATE	QUANT	4.99999E+004	&Scan Rate (mV/s)
STEPSIZE	QUANT	1.00000E+001	St&ep Size (mV)
CYCLES	IQUANT	10	C&ycles (#)
IMODE	SELECTOR	0	I/E Range &Mode
IRANGE	QUANT	1.00000E-005	&Max Current (mA)
AREA	QUANT	1.00000E+000	Electrode &Area (cm^2)
ELECTRODETYPE	SELECTOR	0	Electrode Type
STRIPPING	TOGGLE	F	Used for Stripping
POLARITY	TOGGLE	F	Signal Polarity
CONDIT	TWOPARAM	F	1.50000E+001	0.00000E+000	Conditionin&g	Time(s)	E(V)
DELAY	TWOPARAM	T	1.00000E+001	0.00000E+000	Init. De&lay	Time(s)	Stab.(mV/s)
EQDELAY	QUANT	1.00000E+001	Equil. &Time (s)
IRCOMP	SELECTOR	0	IRCom&p
PFCOR	QUANT	5.00000E+001	PF Corr. (ohm)
SAMPLINGMODE	SELECTOR	1	Sampling &Mode
OCVCURVE	TABLE	39
	Pt	T	Vf	Vm	Ach	Over	Temp
	#	s	V vs. Ref.	V	V	bits	deg C
	0	0.258333	-1.95880E-001	-1.95880E-001	2.28059E-004	..........a	-327.66
	1	0.516667	-1.95894E-001	-1.96637E-001	2.31126E-004	..........a	-327.66
	2	0.775	-1.95983E-001	-1.97373E-001	2.29792E-004	..........a	-327.66
	3	1.03333	-1.96237E-001	-1.98079E-001	2.32192E-004	..........a	-327.66
	4	1.29167	-1.96692E-001	-1.98758E-001	2.24459E-004	..........a	-327.66
	5	1.55	-1.97302E-001	-1.99414E-001	2.25859E-004	..........a	-327.66
	6	1.80833	-1.97982E-001	-2.00052E-001	2.34059E-004	..........a	-327.66
	7	2.06667	-1.98671E-001	-2.00669E-001	2.33726E-004	..........a	-327.66
	8	2.325	-1.99341E-001	-2.01262E-001	2.30192E-004	..........a	-327.66
	9	2.58333	-1.99985E-001	-2.01819E-001	2.20992E-004	..........a	-327.66
	10	2.84167	-2.00601E-001	-2.02303E-001	2.23592E-004	..........a	-327.66
	11	3.1	-2.01186E-001	-2.02759E-001	2.27059E-004	..........a	-327.66
	12	3.35833	-2.01732E-001	-2.03211E-001	2.30926E-004	..........a	-327.66
	13	3.61667	-2.02240E-001	-2.03659E-001	2.20459E-004	..........a	-327.66
	14	3.875	-2.02717E-001	-2.04099E-001	2.25926E-004	..........a	-327.66
	15	4.13333	-2.03175E-001	-2.04539E-001	2.26992E-004	..........a	-327.66
	16	4.39167	-2.03622E-001	-2.04968E-001	2.27859E-004	..........a	-327.66
	17	4.65	-2.04064E-001	-2.05397E-001	2.28726E-004	..........a	-327.66
	18	4.90833	-2.04500E-001	-2.05808E-001	2.33526E-004	..........a	-327.66
	19	5.16667	-2.04931E-001	-2.06220E-001	2.23059E-004	..........a	-327.66
	20	5.425	-2.05355E-001	-2.06622E-001	2.22059E-004	..........a	-327.66
	21	5.68333	-2.05772E-001	-2.07018E-001	2.30659E-004	..........a	-327.66
	22	5.94167	-2.06182E-001	-2.07405E-001	2.33792E-004	..........a	-327.66
	23	6.2	-2.06585E-001	-2.07784E-001	2.21459E-004	..........a	-327.66
	24	6.45833	-2.06981E-001	-2.08162E-001	2.24459E-004	..........a	-327.66
	25	6.71667	-2.07369E-001	-2.08525E-001	2.26926E-004	..........a	-327.66
	26	6.975	-2.07751E-001	-2.08887E-001	2.22659E-004	..........a	-327.66
	27	7.23333	-2.08125E-001	-2.09240E-001	2.35059E-004	..........a	-327.66
	28	7.49167	-2.08493E-001	-2.09588E-001	2.31326E-004	..........a	-327.66
	29	7.75	-2.08854E-001	-2.09925E-001	2.23859E-004	..........a	-327.66
	30	8.00833	-2.09208E-001	-2.10255E-001	2.30192E-004	..........a	-327.66
	31	8.26667	-2.09554E-001	-2.10574E-001	2.25926E-004	..........a	-327.66
	32	8.525	-2.09892E-001	-2.10878E-001	2.18392E-004	..........a	-327.66
	33	8.78333	-2.10221E-001	-2.11177E-001	2.24859E-004	..........a	-327.66
	34	9.04167	-2.10540E-001	-2.11467E-001	2.15792E-004	..........a	-327.66
	35	9.3	-2.10849E-001	-2.11762E-001	2.14926E-004	..........a	-327.66
	36	9.5583	-2.11150E-001	-2.12053E-001	2.17192E-004	..........a	-327.66
	37	9.8167	-2.11445E-001	-2.12337E-001	2.28192E-004	..........a	-327.66
	38	10.075	-2.11738E-001	-2.12624E-001	2.16792E-004	..........a	-327.66
EOC	QUANT	-0.2117376	Open Circuit (V)
PSTATMODEL	IQUANT	7	Pstat Model
PSTATSECTION	LABEL	REF600P-43058	Pstat Section
PSTATSERIALNO	LABEL	43058	Pstat Serial Number
CTRLMODE	IQUANT	1	Control Mode
ELECTROMETER	IQUANT	0	RE=0 or CS=1
IESTAB	IQUANT	2	I/E Stability
CASPEED	IQUANT	4	Control Amp Speed
CONVENTION	IQUANT	1	Current Convention
ICHRANGE	IQUANT	2	Ich Range
ICHRANGEMODE	TOGGLE	F	Ich Auto Range
ICHOFFSETENABLE	TOGGLE	F	Ich Offset Enable
ICHOFFSET	QUANT	0	Ich Offset (V)
ICHFILTER	IQUANT	1	Ich Filter
VCHRANGE	IQUANT	2	Vch Range
VCHRANGEMODE	TOGGLE	F	Vch Auto Range
VCHOFFSETENABLE	TOGGLE	F	Vch Offset Enable
VCHOFFSET	QUANT	0	Vch Offset (V)
VCHFILTER	IQUANT	1	Vch Filter
ACHRANGE	IQUANT	2	Ach Range
ACHOFFSETENABLE	TOGGLE	F	Ach Offset Enable
ACHOFFSET	QUANT	0	Ach Offset (V)
ACHFILTER	IQUANT	1	Ach Filter
IERANGELOWERLIMIT	IQUANT	1	I/E Range Lower Limit
IERANGEMODE	TOGGLE	T	I/E AutoRange
IERANGE	IQUANT	4	I/E Range
POSFEEDENABLE	TOGGLE	F	Positive Feedback IR Comp
POSFEEDRESISTANCE	QUANT	0	Positive Feedback Resistance (ohm)
ACHSELECT	IQUANT	4	Ach Select
SENSECABLEID	IQUANT	7	Sense Cable ID
PWRCABLEID	IQUANT	7	Power Cable ID
DCCALDATE	LABEL	3/22/2024	DC Calibration Date
ACCALDATE	LABEL	3/22/2024	AC Calibration Date
THERMOSELECT	IQUANT	1	Thermo Select
FRAMEWORKVERSION	LABEL	7.8.4	Framework Version
INSTRUMENTVERSION	LABEL	4.42	Instrument Version
CURVE1	TABLE
	Pt	T	Vf	Im	Vu	Sig	Ach	IERange	Over	Temp
	#	s	V vs. Ref.	A	V	V	V	#	bits	deg C
	0	0.0002	-2.11653E-001	2.25001E-007	0.00000E+000	-2.11750E-001	8.15923E-005	8	..........a	-327.66
	2	0.0006	-2.31653E-001	-1.29506E-006	0.00000E+000	-2.31750E-001	-3.18408E-004	8	..........a	-327.66
	4	0.001	-2.51553E-001	-2.28510E-006	0.00000E+000	-2.51750E-001	8.15923E-005	8	..........a	-327.66
	6	0.0014	-2.71553E-001	-2.95512E-006	0.00000E+000	-2.71750E-001	-2.18408E-004	8	..........a	-327.66
	8	0.0018	-2.91853E-001	-3.44514E-006	0.00000E+000	-2.91750E-001	8.15923E-005	8	..........a	-327.66
	10	0.0022	-3.11653E-001	-3.87516E-006	0.00000E+000	-3.11750E-001	8.15923E-005	8	..........a	-327.66
	12	0.0026	-3.31653E-001	-4.19517E-006	0.00000E+000	-3.31750E-001	8.15923E-005	8	..........a	-327.66
	14	0.003	-3.51653E-001	-4.57518E-006	0.00000E+000	-3.51750E-001	8.15923E-005	8	..........a	-327.66
	16	0.0034	-3.71653E-001	-4.80519E-006	0.00000E+000	-3.71750E-001	8.15923E-005	8	..........a	-327.66
	18	0.0038	-3.91753E-001	-5.07520E-006	0.00000E+000	-3.91750E-001	8.15923E-005	8	..........a	-327.66
	20	0.0042	-4.11753E-001	-5.31521E-006	0.00000E+000	-4.11750E-001	8.15923E-005	8	..........a	-327.66
	22	0.0046	-4.31653E-001	-5.53522E-006	0.00000E+000	-4.31750E-001	8.15923E-005	8	..........a	-327.66
	24	0.005	-4.51653E-001	-5.75523E-006	0.00000E+000	-4.51750E-001	8.15923E-005	8	..........a	-327.66
	26	0.0054	-4.71553E-001	-6.00524E-006	0.00000E+000	-4.71750E-001	8.15923E-005	8	..........a	-327.66
	28	0.0058	-4.91453E-001	-6.23525E-006	0.00000E+000	-4.91750E-001	8.15923E-005	8	..........a	-327.66
	30	0.0062	-5.11653E-001	-6.41525E-006	0.00000E+000	-5.11750E-001	8.15923E-005	8	..........a	-327.66
	32	0.0066	-5.31653E-001	-6.66526E-006	0.00000E+000	-5.31750E-001	8.15923E-005	8	..........a	-327.66
	34	0.007	-5.51653E-001	-6.87527E-006	0.00000E+000	-5.51750E-001	-3.18408E-004	8	..........a	-327.66
	36	0.0074	-5.71553E-001	-7.11528E-006	0.00000E+000	-5.71750E-001	8.15923E-005	8	..........a	-327.66
[...]
	2730	0.5462	4.90047E-001	-4.79519E-006	0.00000E+000	4.90000E-001	8.15923E-005	8	..........a	-327.66
	2732	0.5466	4.70047E-001	-5.32521E-006	0.00000E+000	4.70000E-001	8.15923E-005	8	..........a	-327.66
	2734	0.547	4.49947E-001	-5.82523E-006	0.00000E+000	4.50000E-001	8.15923E-005	8	..........a	-327.66
	2736	0.5474	4.30047E-001	-6.31525E-006	0.00000E+000	4.30000E-001	8.15923E-005	8	..........a	-327.66
	2738	0.5478	4.10047E-001	-6.83527E-006	0.00000E+000	4.10000E-001	8.15923E-005	8	..........a	-327.66
	2740	0.5482	3.89947E-001	-7.24528E-006	0.00000E+000	3.90000E-001	8.15923E-005	8	..........a	-327.66
	2742	0.5486	3.70047E-001	-7.73530E-006	0.00000E+000	3.70000E-001	8.15923E-005	8	..........a	-327.66
	2744	0.549	3.50047E-001	-8.20532E-006	0.00000E+000	3.50000E-001	8.15923E-005	8	..........a	-327.66
	2746	0.5494	3.30047E-001	-8.64534E-006	0.00000E+000	3.30000E-001	8.15923E-005	8	..........a	-327.66
	2748	0.5498	3.10047E-001	-9.15536E-006	0.00000E+000	3.10000E-001	8.15923E-005	8	..........a	-327.66
	2750	0.5502	2.89947E-001	-9.59537E-006	0.00000E+000	2.90000E-001	8.15923E-005	8	..........a	-327.66
	2752	0.5506	2.69947E-001	-1.00254E-005	0.00000E+000	2.70000E-001	8.15923E-005	8	..........a	-327.66
	2754	0.551	2.49947E-001	-1.05154E-005	0.00000E+000	2.50000E-001	8.15923E-005	8	..........a	-327.66
	2756	0.5514	2.29947E-001	-1.09554E-005	0.00000E+000	2.30000E-001	8.15923E-005	8	..........a	-327.66
	2758	0.5518	2.09947E-001	-1.13854E-005	0.00000E+000	2.10000E-001	-2.18408E-004	8	..........a	-327.66
	2760	0.5522	1.90097E-001	-1.17455E-005	0.00000E+000	1.90000E-001	8.15923E-005	8	..........a	-327.66
	2762	0.5526	1.69947E-001	-1.21355E-005	0.00000E+000	1.70000E-001	-1.18408E-004	8	..........a	-327.66
	2764	0.553	1.49997E-001	-1.24255E-005	0.00000E+000	1.50000E-001	8.15923E-005	8	..........a	-327.66
	2766	0.5534	1.29847E-001	-1.27155E-005	0.00000E+000	1.30000E-001	8.15923E-005	8	..........a	-327.66
	2768	0.5538	1.10147E-001	-1.29955E-005	0.00000E+000	1.10000E-001	8.15923E-005	8	..........a	-327.66
	2770	0.5542	9.00471E-002	-1.32355E-005	0.00000E+000	9.00000E-002	8.15923E-005	8	..........a	-327.66
	2772	0.5546	6.99471E-002	-1.34755E-005	0.00000E+000	7.00000E-002	8.15923E-005	8	..........a	-327.66
	2774	0.555	5.01471E-002	-1.36755E-005	0.00000E+000	5.00000E-002	8.15923E-005	8	..........a	-327.66
	2776	0.5554	3.01471E-002	-1.38055E-005	0.00000E+000	3.00000E-002	8.15923E-005	8	..........a	-327.66
	2778	0.5558	1.01471E-002	-1.40055E-005	0.00000E+000	1.00000E-002	8.15923E-005	8	..........a	-327.66
	2780	0.5562	-9.95289E-003	-1.42556E-005	0.00000E+000	-1.00000E-002	8.15923E-005	8	..........a	-327.66
	2782	0.5566	-2.99529E-002	-1.45156E-005	0.00000E+000	-3.00000E-002	8.15923E-005	8	..........a	-327.66
	2784	0.557	-4.99529E-002	-1.46356E-005	0.00000E+000	-5.00000E-002	8.15923E-005	8	..........a	-327.66
	2786	0.5574	-6.99529E-002	-1.46956E-005	0.00000E+000	-7.00000E-002	8.15923E-005	8	..........a	-327.66
	2788	0.5578	-9.00529E-002	-1.45156E-005	0.00000E+000	-9.00000E-002	8.15923E-005	8	..........a	-327.66
	2790	0.5582	-1.10053E-001	-1.40355E-005	0.00000E+000	-1.10000E-001	8.15923E-005	8	..........a	-327.66
	2792	0.5586	-1.30053E-001	-1.38355E-005	0.00000E+000	-1.30000E-001	8.15923E-005	8	..........a	-327.66
	2794	0.559	-1.49953E-001	-1.37155E-005	0.00000E+000	-1.50000E-001	8.15923E-005	8	..........a	-327.66
	2796	0.5594	-1.70053E-001	-1.35555E-005	0.00000E+000	-1.70000E-001	8.15923E-005	8	..........a	-327.66
	2798	0.5598	-1.89953E-001	-1.33755E-005	0.00000E+000	-1.90000E-001	8.15923E-005	8	..........a	-327.66
	2800	0.5602	-2.09953E-001	-1.31755E-005	0.00000E+000	-2.10000E-001	8.15923E-005	8	..........a	-327.66

File: 20240424_T_GM0016_HL03_E05_CV50K.DTA
EXPLAIN
TAG	CV
TITLE	LABEL	Cyclic Voltammetry	Test &Identifier
DATE	LABEL	4/24/2024	Date
TIME	LABEL	17:54:25	Time
NOTES	NOTES	1	&Notes...

PSTAT	PSTAT	REF600P-43058	Potentiostat
VINIT	POTEN	0.00000E+000	T	Initial &E (V)
VLIMIT1	POTEN	-6.00000E-001	F	Scan Limit &1 (V)
VLIMIT2	POTEN	8.00000E-001	F	Scan Limit &2 (V)
VFINAL	POTEN	0.00000E+000	T	Final &E (V)
SCANRATE	QUANT	4.99999E+004	&Scan Rate (mV/s)
STEPSIZE	QUANT	1.00000E+001	St&ep Size (mV)
CYCLES	IQUANT	10	C&ycles (#)
IMODE	SELECTOR	0	I/E Range &Mode
IRANGE	QUANT	1.00000E-005	&Max Current (mA)
AREA	QUANT	1.00000E+000	Electrode &Area (cm^2)
ELECTRODETYPE	SELECTOR	0	Electrode Type
STRIPPING	TOGGLE	F	Used for Stripping
POLARITY	TOGGLE	F	Signal Polarity
CONDIT	TWOPARAM	F	1.50000E+001	0.00000E+000	Conditionin&g	Time(s)	E(V)
DELAY	TWOPARAM	T	1.00000E+001	0.00000E+000	Init. De&lay	Time(s)	Stab.(mV/s)
EQDELAY	QUANT	1.00000E+001	Equil. &Time (s)
IRCOMP	SELECTOR	0	IRCom&p
PFCOR	QUANT	5.00000E+001	PF Corr. (ohm)
SAMPLINGMODE	SELECTOR	1	Sampling &Mode
OCVCURVE	TABLE	39
	Pt	T	Vf	Vm	Ach	Over	Temp
	#	s	V vs. Ref.	V	V	bits	deg C
	0	0.258333	-4.23392E-002	-4.23392E-002	2.46459E-004	..........a	-327.66
	1	0.516667	-4.23424E-002	-4.25070E-002	2.43859E-004	..........a	-327.66
	2	0.775	-4.23623E-002	-4.26780E-002	2.23792E-004	..........a	-327.66
	3	1.03333	-4.24195E-002	-4.28482E-002	2.38126E-004	..........a	-327.66
	4	1.29167	-4.25240E-002	-4.30192E-002	2.30126E-004	..........a	-327.66
	5	1.55	-4.26667E-002	-4.31889E-002	2.47392E-004	..........a	-327.66
	6	1.80833	-4.28305E-002	-4.33593E-002	2.38526E-004	..........a	-327.66
	7	2.06667	-4.30017E-002	-4.35232E-002	2.34792E-004	..........a	-327.66
	8	2.325	-4.31734E-002	-4.36925E-002	2.52326E-004	..........a	-327.66
	9	2.58333	-4.33433E-002	-4.38599E-002	2.44326E-004	..........a	-327.66
	10	2.84167	-4.35117E-002	-4.40244E-002	2.36592E-004	..........a	-327.66
	11	3.1	-4.36790E-002	-4.41911E-002	2.37792E-004	..........a	-327.66
	12	3.35833	-4.38457E-002	-4.43536E-002	2.42126E-004	..........a	-327.66
	13	3.61667	-4.40117E-002	-4.45237E-002	2.26792E-004	..........a	-327.66
	14	3.875	-4.41776E-002	-4.46963E-002	2.27726E-004	..........a	-327.66
	15	4.13333	-4.43443E-002	-4.48666E-002	2.43459E-004	..........a	-327.66
	16	4.39167	-4.45124E-002	-4.50258E-002	2.39392E-004	..........a	-327.66
	17	4.65	-4.46811E-002	-4.51946E-002	2.29859E-004	..........a	-327.66
	18	4.90833	-4.48487E-002	-4.53538E-002	2.41926E-004	..........a	-327.66
	19	5.16667	-4.50147E-002	-4.55180E-002	2.37392E-004	..........a	-327.66
	20	5.425	-4.51790E-002	-4.56789E-002	2.30259E-004	..........a	-327.66
	21	5.68333	-4.53421E-002	-4.58380E-002	2.34259E-004	..........a	-327.66
	22	5.94167	-4.55042E-002	-4.60011E-002	2.41259E-004	..........a	-327.66
	23	6.2	-4.56657E-002	-4.61624E-002	2.36392E-004	..........a	-327.66
	24	6.45833	-4.58268E-002	-4.63163E-002	2.39926E-004	..........a	-327.66
	25	6.71667	-4.59873E-002	-4.64692E-002	2.40259E-004	..........a	-327.66
	26	6.975	-4.61461E-002	-4.66260E-002	2.35926E-004	..........a	-327.66
	27	7.23333	-4.63030E-002	-4.67809E-002	2.36526E-004	..........a	-327.66
	28	7.49167	-4.64587E-002	-4.69367E-002	2.43926E-004	..........a	-327.66
	29	7.75	-4.66137E-002	-4.70853E-002	2.47592E-004	..........a	-327.66
	30	8.00833	-4.67682E-002	-4.72353E-002	2.47926E-004	..........a	-327.66
	31	8.26667	-4.69216E-002	-4.73942E-002	2.43392E-004	..........a	-327.66
	32	8.525	-4.70743E-002	-4.75459E-002	2.27192E-004	..........a	-327.66
	33	8.78333	-4.72271E-002	-4.77001E-002	2.31526E-004	..........a	-327.66
	34	9.04167	-4.73804E-002	-4.78503E-002	2.48192E-004	..........a	-327.66
	35	9.3	-4.75338E-002	-4.80030E-002	2.40992E-004	..........a	-327.66
	36	9.5583	-4.76867E-002	-4.81522E-002	2.29592E-004	..........a	-327.66
	37	9.8167	-4.78387E-002	-4.82986E-002	2.39059E-004	..........a	-327.66
	38	10.075	-4.79894E-002	-4.84416E-002	2.51526E-004	..........a	-327.66
EOC	QUANT	-0.0479894	Open Circuit (V)
PSTATMODEL	IQUANT	7	Pstat Model
PSTATSECTION	LABEL	REF600P-43058	Pstat Section
PSTATSERIALNO	LABEL	43058	Pstat Serial Number
CTRLMODE	IQUANT	1	Control Mode
ELECTROMETER	IQUANT	0	RE=0 or CS=1
IESTAB	IQUANT	2	I/E Stability
CASPEED	IQUANT	4	Control Amp Speed
CONVENTION	IQUANT	1	Current Convention
ICHRANGE	IQUANT	2	Ich Range
ICHRANGEMODE	TOGGLE	F	Ich Auto Range
ICHOFFSETENABLE	TOGGLE	F	Ich Offset Enable
ICHOFFSET	QUANT	0	Ich Offset (V)
ICHFILTER	IQUANT	1	Ich Filter
VCHRANGE	IQUANT	2	Vch Range
VCHRANGEMODE	TOGGLE	F	Vch Auto Range
VCHOFFSETENABLE	TOGGLE	F	Vch Offset Enable
VCHOFFSET	QUANT	0	Vch Offset (V)
VCHFILTER	IQUANT	1	Vch Filter
ACHRANGE	IQUANT	2	Ach Range
ACHOFFSETENABLE	TOGGLE	F	Ach Offset Enable
ACHOFFSET	QUANT	0	Ach Offset (V)
ACHFILTER	IQUANT	1	Ach Filter
IERANGELOWERLIMIT	IQUANT	1	I/E Range Lower Limit
IERANGEMODE	TOGGLE	T	I/E AutoRange
IERANGE	IQUANT	4	I/E Range
POSFEEDENABLE	TOGGLE	F	Positive Feedback IR Comp
POSFEEDRESISTANCE	QUANT	0	Positive Feedback Resistance (ohm)
ACHSELECT	IQUANT	4	Ach Select
SENSECABLEID	IQUANT	7	Sense Cable ID
PWRCABLEID	IQUANT	7	Power Cable ID
DCCALDATE	LABEL	3/22/2024	DC Calibration Date
ACCALDATE	LABEL	3/22/2024	AC Calibration Date
THERMOSELECT	IQUANT	1	Thermo Select
FRAMEWORKVERSION	LABEL	7.8.4	Framework Version
INSTRUMENTVERSION	LABEL	4.42	Instrument Version
CURVE1	TABLE
	Pt	T	Vf	Im	Vu	Sig	Ach	IERange	Over	Temp
	#	s	V vs. Ref.	A	V	V	V	#	bits	deg C
	0	0.0002	-4.80029E-002	1.94999E-007	0.00000E+000	-4.80000E-002	8.15923E-005	8	..........a	-327.66
	2	0.0006	-6.78529E-002	-1.40506E-006	0.00000E+000	-6.80000E-002	8.15923E-005	8	..........a	-327.66
	4	0.001	-8.80529E-002	-2.40510E-006	0.00000E+000	-8.80000E-002	8.15923E-005	8	..........a	-327.66
	6	0.0014	-1.07753E-001	-3.12513E-006	0.00000E+000	-1.08000E-001	-2.18408E-004	8	..........a	-327.66
	8	0.0018	-1.27953E-001	-3.73515E-006	0.00000E+000	-1.28000E-001	8.15923E-005	8	..........a	-327.66
	10	0.0022	-1.47953E-001	-4.21517E-006	0.00000E+000	-1.48000E-001	8.15923E-005	8	..........a	-327.66
	12	0.0026	-1.67953E-001	-4.57518E-006	0.00000E+000	-1.68000E-001	8.15923E-005	8	..........a	-327.66
	14	0.003	-1.87853E-001	-4.86519E-006	0.00000E+000	-1.88000E-001	8.15923E-005	8	..........a	-327.66
	16	0.0034	-2.07953E-001	-5.16521E-006	0.00000E+000	-2.08000E-001	8.15923E-005	8	..........a	-327.66
	18	0.0038	-2.27853E-001	-5.44522E-006	0.00000E+000	-2.28000E-001	8.15923E-005	8	..........a	-327.66
	20	0.0042	-2.47753E-001	-5.65522E-006	0.00000E+000	-2.48000E-001	8.15923E-005	8	..........a	-327.66
	22	0.0046	-2.67953E-001	-5.87523E-006	0.00000E+000	-2.68000E-001	8.15923E-005	8	..........a	-327.66
	24	0.005	-2.87953E-001	-6.09524E-006	0.00000E+000	-2.88000E-001	8.15923E-005	8	..........a	-327.66
	26	0.0054	-3.07753E-001	-6.36525E-006	0.00000E+000	-3.08000E-001	8.15923E-005	8	..........a	-327.66
	28	0.0058	-3.27953E-001	-6.51526E-006	0.00000E+000	-3.28000E-001	8.15923E-005	8	..........a	-327.66
	30	0.0062	-3.47853E-001	-6.78527E-006	0.00000E+000	-3.48000E-001	8.15923E-005	8	..........a	-327.66
	32	0.0066	-3.67953E-001	-7.04528E-006	0.00000E+000	-3.68000E-001	8.15923E-005	8	..........a	-327.66
	34	0.007	-3.87753E-001	-7.25529E-006	0.00000E+000	-3.88000E-001	8.15923E-005	8	..........a	-327.66
	36	0.0074	-4.07953E-001	-7.53530E-006	0.00000E+000	-4.08000E-001	8.15923E-005	8	..........a	-327.66
[...]
	2765	0.5532	3.00147E-001	-9.65538E-006	0.00000E+000	3.00000E-001	8.15923E-005	8	..........a	-327.66
	2766	0.5534	2.90047E-001	-9.88539E-006	0.00000E+000	2.90000E-001	-3.18408E-004	8	..........a	-327.66
	2767	0.5536	2.80047E-001	-1.01454E-005	0.00000E+000	2.80000E-001	8.15923E-005	8	..........a	-327.66
	2768	0.5538	2.70047E-001	-1.03354E-005	0.00000E+000	2.70000E-001	8.15923E-005	8	..........a	-327.66
	2769	0.554	2.60047E-001	-1.05954E-005	0.00000E+000	2.60000E-001	8.15923E-005	8	..........a	-327.66
	2770	0.5542	2.50147E-001	-1.08554E-005	0.00000E+000	2.50000E-001	8.15923E-005	8	..........a	-327.66
	2771	0.5544	2.40147E-001	-1.10754E-005	0.00000E+000	2.40000E-001	8.15923E-005	8	..........a	-327.66
	2772	0.5546	2.29947E-001	-1.12854E-005	0.00000E+000	2.30000E-001	8.15923E-005	8	..........a	-327.66
	2773	0.5548	2.20247E-001	-1.14854E-005	0.00000E+000	2.20000E-001	8.15923E-005	8	..........a	-327.66
	2774	0.555	2.09947E-001	-1.16555E-005	0.00000E+000	2.10000E-001	8.15923E-005	8	..........a	-327.66
	2775	0.5552	2.00147E-001	-1.18955E-005	0.00000E+000	2.00000E-001	8.15923E-005	8	..........a	-327.66
	2776	0.5554	1.90047E-001	-1.21155E-005	0.00000E+000	1.90000E-001	8.15923E-005	8	..........a	-327.66
	2777	0.5556	1.79947E-001	-1.23155E-005	0.00000E+000	1.80000E-001	-3.18408E-004	8	..........a	-327.66
	2778	0.5558	1.69997E-001	-1.24355E-005	0.00000E+000	1.70000E-001	8.15923E-005	8	..........a	-327.66
	2779	0.556	1.60047E-001	-1.26055E-005	0.00000E+000	1.60000E-001	8.15923E-005	8	..........a	-327.66
	2780	0.5562	1.50147E-001	-1.27655E-005	0.00000E+000	1.50000E-001	8.15923E-005	8	..........a	-327.66
	2781	0.5564	1.40147E-001	-1.29155E-005	0.00000E+000	1.40000E-001	8.15923E-005	8	..........a	-327.66
	2782	0.5566	1.30147E-001	-1.31755E-005	0.00000E+000	1.30000E-001	8.15923E-005	8	..........a	-327.66
	2783	0.5568	1.20147E-001	-1.32755E-005	0.00000E+000	1.20000E-001	8.15923E-005	8	..........a	-327.66
	2784	0.557	1.10147E-001	-1.33955E-005	0.00000E+000	1.10000E-001	8.15923E-005	8	..........a	-327.66
	2785	0.5572	1.00047E-001	-1.35955E-005	0.00000E+000	1.00000E-001	8.15923E-005	8	..........a	-327.66
	2786	0.5574	9.00471E-002	-1.36755E-005	0.00000E+000	9.00000E-002	8.15923E-005	8	..........a	-327.66
	2787	0.5576	8.01471E-002	-1.37755E-005	0.00000E+000	8.00000E-002	8.15923E-005	8	..........a	-327.66
	2788	0.5578	7.00471E-002	-1.39355E-005	0.00000E+000	7.00000E-002	8.15923E-005	8	..........a	-327.66
	2789	0.558	6.01471E-002	-1.40755E-005	0.00000E+000	6.00000E-002	-2.18408E-004	8	..........a	-327.66
	2790	0.5582	5.00471E-002	-1.42156E-005	0.00000E+000	5.00000E-002	8.15923E-005	8	..........a	-327.66
	2791	0.5584	4.00471E-002	-1.43756E-005	0.00000E+000	4.00000E-002	8.15923E-005	8	..........a	-327.66
	2792	0.5586	3.01471E-002	-1.44556E-005	0.00000E+000	3.00000E-002	8.15923E-005	8	..........a	-327.66
	2793	0.5588	2.01471E-002	-1.45956E-005	0.00000E+000	2.00000E-002	8.15923E-005	8	..........a	-327.66
	2794	0.559	1.00471E-002	-1.47656E-005	0.00000E+000	1.00000E-002	8.15923E-005	8	..........a	-327.66
	2795	0.5592	1.47114E-004	-1.50056E-005	0.00000E+000	7.45058E-009	8.15923E-005	8	..........a	-327.66
	2796	0.5594	-9.95289E-003	-1.52656E-005	0.00000E+000	-1.00000E-002	8.15923E-005	8	..........a	-327.66
	2797	0.5596	-1.97529E-002	-1.55256E-005	0.00000E+000	-2.00000E-002	8.15923E-005	8	..........a	-327.66
	2798	0.5598	-2.99529E-002	-1.58556E-005	0.00000E+000	-3.00000E-002	8.15923E-005	8	..........a	-327.66
	2799	0.56	-3.99529E-002	-1.61256E-005	0.00000E+000	-4.00000E-002	8.15923E-005	8	..........a	-327.66
	2800	0.5602	-4.99529E-002	-1.63256E-005	0.00000E+000	-5.00000E-002	8.15923E-005	8	..........a	-327.66