Folder: GamryParser/data/raw/batch_data

Note: README.md
# GamryParser
GamryParser is a Python toolkit for parsing and analyzing raw .DTA files generated by Gamry electrochemical workstations. It extracts structured data from complex experiment files and provides analysis tools tailored for neural interfacing and bioelectronic applications.

File: 20240321_K_GM0016_HL03_E03_CV50.DTA
EXPLAIN
TAG	CV
TITLE	LABEL	Cyclic Voltammetry	Test &Identifier
DATE	LABEL	3/21/2024	Date
TIME	LABEL	16:54:47	Time
NOTES	NOTES	1	&Notes...

PSTAT	PSTAT	REF600P-43058	Potentiostat
VINIT	POTEN	0.00000E+000	T	Initial &E (V)
VLIMIT1	POTEN	-6.00000E-001	F	Scan Limit &1 (V)
VLIMIT2	POTEN	8.00000E-001	F	Scan Limit &2 (V)
VFINAL	POTEN	0.00000E+000	T	Final &E (V)
SCANRATE	QUANT	4.99999E+001	&Scan Rate (mV/s)
STEPSIZE	QUANT	1.00000E+001	St&ep Size (mV)
CYCLES	IQUANT	4	C&ycles (#)
IMODE	SELECTOR	1	I/E Range &Mode
IRANGE	QUANT	1.00000E-005	&Max Current (mA)
AREA	QUANT	1.00000E+000	Electrode &Area (cm^2)
ELECTRODETYPE	SELECTOR	0	Electrode Type
STRIPPING	TOGGLE	F	Used for Stripping
POLARITY	TOGGLE	F	Signal Polarity
CONDIT	TWOPARAM	F	1.50000E+001	0.00000E+000	Conditionin&g	Time(s)	E(V)
DELAY	TWOPARAM	T	1.00000E+001	0.00000E+000	Init. De&lay	Time(s)	Stab.(mV/s)
EQDELAY	QUANT	1.00000E+001	Equil. &Time (s)
IRCOMP	SELECTOR	0	IRCom&p
PFCOR	QUANT	5.00000E+001	PF Corr. (ohm)
SAMPLINGMODE	SELECTOR	1	Sampling &Mode
OCVCURVE	TABLE	39
	Pt	T	Vf	Vm	Ach	Over	Temp
	#	s	V vs. Ref.	V	V	bits	deg C
	0	0.258333	4.42178E-001	4.42178E-001	2.25022E-004	..........a	-327.66
	1	0.516667	4.42147E-001	4.40558E-001	2.22289E-004	..........a	-327.66
	2	0.775	4.41957E-001	4.39037E-001	2.24622E-004	..........a	-327.66
	3	1.03333	4.41421E-001	4.37549E-001	2.29689E-004	..........a	-327.66
	4	1.29167	4.40459E-001	4.36031E-001	2.33356E-004	..........a	-327.66
	5	1.55	4.39166E-001	4.34517E-001	2.31222E-004	..........a	-327.66
	6	1.80833	4.37704E-001	4.33108E-001	2.23089E-004	..........a	-327.66
	7	2.06667	4.36194E-001	4.31752E-001	2.30956E-004	..........a	-327.66
	8	2.325	4.34706E-001	4.30469E-001	2.31289E-004	..........a	-327.66
	9	2.58333	4.33276E-001	4.29310E-001	2.24422E-004	..........a	-327.66
	10	2.84167	4.31917E-001	4.28023E-001	2.43622E-004	..........a	-327.66
	11	3.1	4.30619E-001	4.26716E-001	2.21022E-004	..........a	-327.66
	12	3.35833	4.29358E-001	4.25630E-001	2.41622E-004	..........a	-327.66
	13	3.61667	4.28104E-001	4.23770E-001	2.19422E-004	..........a	-327.66
	14	3.875	4.26833E-001	4.23324E-001	2.39222E-004	..........a	-327.66
	15	4.13333	4.25567E-001	4.22348E-001	2.25489E-004	..........a	-327.66
	16	4.39167	4.24387E-001	4.21331E-001	2.16956E-004	..........a	-327.66
	17	4.65	4.23328E-001	4.20284E-001	2.27022E-004	..........a	-327.66
	18	4.90833	4.22344E-001	4.19325E-001	2.31622E-004	..........a	-327.66
	19	5.16667	4.21372E-001	4.18416E-001	2.47356E-004	..........a	-327.66
	20	5.425	4.20398E-001	4.17413E-001	2.18222E-004	..........a	-327.66
	21	5.68333	4.19429E-001	4.16570E-001	2.21956E-004	..........a	-327.66
	22	5.94167	4.18474E-001	4.15623E-001	2.23622E-004	..........a	-327.66
	23	6.2	4.17539E-001	4.14768E-001	2.25822E-004	..........a	-327.66
	24	6.45833	4.16622E-001	4.13918E-001	2.25222E-004	..........a	-327.66
	25	6.71667	4.15726E-001	4.13101E-001	2.29622E-004	..........a	-327.66
	26	6.975	4.14853E-001	4.12290E-001	2.22156E-004	..........a	-327.66
	27	7.23333	4.14004E-001	4.11535E-001	2.26022E-004	..........a	-327.66
	28	7.49167	4.13179E-001	4.10771E-001	2.27356E-004	..........a	-327.66
	29	7.75	4.12381E-001	4.10129E-001	2.33489E-004	..........a	-327.66
	30	8.00833	4.11611E-001	4.09360E-001	2.23289E-004	..........a	-327.66
	31	8.26667	4.10873E-001	4.08802E-001	2.35222E-004	..........a	-327.66
	32	8.525	4.10162E-001	4.08014E-001	2.43356E-004	..........a	-327.66
	33	8.78333	4.09469E-001	4.07325E-001	2.32889E-004	..........a	-327.66
	34	9.04167	4.08782E-001	4.06690E-001	2.33289E-004	..........a	-327.66
	35	9.3	4.08094E-001	4.06043E-001	2.24356E-004	..........a	-327.66
	36	9.5583	4.07417E-001	4.05598E-001	2.35022E-004	..........a	-327.66
	37	9.8167	4.06769E-001	4.04866E-001	2.35956E-004	..........a	-327.66
	38	10.075	4.06151E-001	4.04258E-001	2.33156E-004	..........a	-327.66
EOC	QUANT	0.4061515	Open Circuit (V)
PSTATMODEL	IQUANT	7	Pstat Model
PSTATSECTION	LABEL	REF600P-43058	Pstat Section
PSTATSERIALNO	LABEL	43058	Pstat Serial Number
CTRLMODE	IQUANT	1	Control Mode
ELECTROMETER	IQUANT	0	RE=0 or CS=1
IESTAB	IQUANT	2	I/E Stability
CASPEED	IQUANT	4	Control Amp Speed
CONVENTION	IQUANT	1	Current Convention
ICHRANGE	IQUANT	2	Ich Range
ICHRANGEMODE	TOGGLE	F	Ich Auto Range
ICHOFFSETENABLE	TOGGLE	F	Ich Offset Enable
ICHOFFSET	QUANT	0	Ich Offset (V)
ICHFILTER	IQUANT	2	Ich Filter
VCHRANGE	IQUANT	2	Vch Range
VCHRANGEMODE	TOGGLE	F	Vch Auto Range
VCHOFFSETENABLE	TOGGLE	F	Vch Offset Enable
VCHOFFSET	QUANT	0	Vch Offset (V)
VCHFILTER	IQUANT	2	Vch Filter
ACHRANGE	IQUANT	2	Ach Range
ACHOFFSETENABLE	TOGGLE	F	Ach Offset Enable
ACHOFFSET	QUANT	0	Ach Offset (V)
ACHFILTER	IQUANT	1	Ach Filter
IERANGELOWERLIMIT	IQUANT	1	I/E Range Lower Limit
IERANGEMODE	TOGGLE	F	I/E AutoRange
IERANGE	IQUANT	4	I/E Range
POSFEEDENABLE	TOGGLE	F	Positive Feedback IR Comp
POSFEEDRESISTANCE	QUANT	0	Positive Feedback Resistance (ohm)
ACHSELECT	IQUANT	4	Ach Select
SENSECABLEID	IQUANT	7	Sense Cable ID
PWRCABLEID	IQUANT	7	Power Cable ID
DCCALDATE	LABEL	12/18/2023	DC Calibration Date
ACCALDATE	LABEL	12/18/2023	AC Calibration Date
THERMOSELECT	IQUANT	1	Thermo Select
FRAMEWORKVERSION	LABEL	7.8.4	Framework Version
INSTRUMENTVERSION	LABEL	4.42	Instrument Version
CURVE1	TABLE
	Pt	T	Vf	Im	Vu	Sig	Ach	IERange	Over	Temp
	#	s	V vs. Ref.	A	V	V	V	#	bits	deg C
	0	0.2	4.06087E-001	2.34757E-011	0.00000E+000	4.06150E-001	9.66122E-004	4	..........a	-327.66
	3	0.8	3.76006E-001	-2.08900E-011	0.00000E+000	3.76150E-001	9.51222E-004	4	..........a	-327.66
	6	1.4	3.46205E-001	-4.02497E-011	0.00000E+000	3.46150E-001	9.49222E-004	4	..........a	-327.66
	9	2	3.16173E-001	-5.74334E-011	0.00000E+000	3.16150E-001	9.63822E-004	4	..........a	-327.66
	12	2.6	2.86125E-001	-7.28570E-011	0.00000E+000	2.86150E-001	9.84522E-004	4	..........a	-327.66
	15	3.2	2.56141E-001	-8.81576E-011	0.00000E+000	2.56150E-001	9.86722E-004	4	..........a	-327.66
	18	3.8	2.26216E-001	-1.01244E-010	0.00000E+000	2.26150E-001	9.63622E-004	4	..........a	-327.66
	21	4.4	1.96144E-001	-1.12128E-010	0.00000E+000	1.96150E-001	9.72622E-004	4	..........a	-327.66
	24	5	1.66189E-001	-1.20098E-010	0.00000E+000	1.66150E-001	9.70722E-004	4	..........a	-327.66
	27	5.6	1.36184E-001	-1.27547E-010	0.00000E+000	1.36150E-001	9.57922E-004	4	..........a	-327.66
	30	6.2	1.06256E-001	-1.32807E-010	0.00000E+000	1.06150E-001	9.52822E-004	4	..........a	-327.66
	33	6.8	7.61196E-002	-1.38829E-010	0.00000E+000	7.61500E-002	9.68222E-004	4	..........a	-327.66
	36	7.4	4.61667E-002	-1.44396E-010	0.00000E+000	4.61500E-002	9.71522E-004	4	..........a	-327.66
	39	8	1.62310E-002	-1.50971E-010	0.00000E+000	1.61500E-002	9.67322E-004	4	..........a	-327.66
	42	8.6	-1.38011E-002	-1.59913E-010	0.00000E+000	-1.38500E-002	9.73522E-004	4	..........a	-327.66
	45	9.2	-4.38051E-002	-1.69154E-010	0.00000E+000	-4.38500E-002	9.85022E-004	4	..........a	-327.66
	48	9.8	-7.38716E-002	-1.80854E-010	0.00000E+000	-7.38500E-002	9.76122E-004	4	..........a	-327.66
	51	10.4	-1.03871E-001	-1.93967E-010	0.00000E+000	-1.03850E-001	9.70322E-004	4	..........a	-327.66
	54	11	-1.33806E-001	-2.08173E-010	0.00000E+000	-1.33850E-001	9.78422E-004	4	..........a	-327.66
	57	11.6	-1.63842E-001	-2.24714E-010	0.00000E+000	-1.63850E-001	9.91722E-004	4	..........a	-327.66
	60	12.2	-1.93800E-001	-2.43957E-010	0.00000E+000	-1.93850E-001	9.79022E-004	4	..........a	-327.66
[...]
	1085	217.2	7.59911E-001	1.80796E-010	0.00000E+000	7.60000E-001	9.75622E-004	4	..........a	-327.66
	1086	217.4	7.49871E-001	1.52713E-010	0.00000E+000	7.50000E-001	9.70722E-004	4	..........a	-327.66
	1087	217.6	7.39987E-001	1.22035E-010	0.00000E+000	7.40000E-001	1.00092E-003	4	..........a	-327.66
	1088	217.8	7.29997E-001	9.71045E-011	0.00000E+000	7.30000E-001	9.73322E-004	4	..........a	-327.66
	1089	218	7.19945E-001	8.00589E-011	0.00000E+000	7.20000E-001	9.91122E-004	4	..........a	-327.66
	1090	218.2	7.09876E-001	6.35422E-011	0.00000E+000	7.10000E-001	9.89222E-004	4	..........a	-327.66
	1091	218.4	6.99965E-001	5.12538E-011	0.00000E+000	7.00000E-001	9.80922E-004	4	..........a	-327.66
	1092	218.6	6.89918E-001	3.92713E-011	0.00000E+000	6.90000E-001	9.87222E-004	4	..........a	-327.66
	1093	218.8	6.79790E-001	3.11890E-011	0.00000E+000	6.80000E-001	9.55422E-004	4	..........a	-327.66
	1094	219	6.69875E-001	1.87985E-011	0.00000E+000	6.70000E-001	9.80922E-004	4	..........a	-327.66
	1095	219.2	6.60013E-001	1.04092E-011	0.00000E+000	6.60000E-001	9.87522E-004	4	..........a	-327.66
	1096	219.4	6.49901E-001	2.68290E-012	0.00000E+000	6.50000E-001	9.75822E-004	4	..........a	-327.66
	1097	219.6	6.39893E-001	-2.62530E-012	0.00000E+000	6.40000E-001	1.00062E-003	4	..........a	-327.66
	1098	219.8	6.29956E-001	-9.45456E-012	0.00000E+000	6.30000E-001	9.82822E-004	4	..........a	-327.66
	1099	220	6.19981E-001	-1.59038E-011	0.00000E+000	6.20000E-001	9.83222E-004	4	..........a	-327.66
	1100	220.2	6.09993E-001	-2.16740E-011	0.00000E+000	6.10000E-001	9.70222E-004	4	..........a	-327.66
	1101	220.4	5.99954E-001	-2.77253E-011	0.00000E+000	6.00000E-001	9.77822E-004	4	..........a	-327.66
	1102	220.6	5.89929E-001	-3.28595E-011	0.00000E+000	5.90000E-001	9.86022E-004	4	..........a	-327.66
	1103	220.8	5.80028E-001	-3.72596E-011	0.00000E+000	5.80000E-001	9.87022E-004	4	..........a	-327.66
	1104	221	5.69979E-001	-4.07288E-011	0.00000E+000	5.70000E-001	9.83822E-004	4	..........a	-327.66
	1105	221.2	5.59999E-001	-4.47679E-011	0.00000E+000	5.60000E-001	9.85622E-004	4	..........a	-327.66
	1106	221.4	5.49946E-001	-4.95021E-011	0.00000E+000	5.50000E-001	9.84422E-004	4	..........a	-327.66
	1107	221.6	5.40023E-001	-5.29232E-011	0.00000E+000	5.40000E-001	9.77122E-004	4	..........a	-327.66
	1108	221.8	5.30005E-001	-5.68314E-011	0.00000E+000	5.30000E-001	9.70022E-004	4	..........a	-327.66
	1109	222	5.19964E-001	-6.07825E-011	0.00000E+000	5.20000E-001	9.79422E-004	4	..........a	-327.66
	1110	222.2	5.09921E-001	-6.48397E-011	0.00000E+000	5.10000E-001	9.64822E-004	4	..........a	-327.66
	1111	222.4	5.00050E-001	-6.88108E-011	0.00000E+000	5.00000E-001	9.87622E-004	4	..........a	-327.66
	1112	222.6	4.89990E-001	-7.17510E-011	0.00000E+000	4.90000E-001	9.75522E-004	4	..........a	-327.66
	1113	222.8	4.79920E-001	-7.56961E-011	0.00000E+000	4.80000E-001	9.71522E-004	4	..........a	-327.66
	1114	223	4.69941E-001	-7.94012E-011	0.00000E+000	4.70000E-001	9.79522E-004	4	..........a	-327.66
	1115	223.2	4.60016E-001	-8.30864E-011	0.00000E+000	4.60000E-001	9.86622E-004	4	..........a	-327.66
	1116	223.4	4.50022E-001	-8.67225E-011	0.00000E+000	4.50000E-001	9.75522E-004	4	..........a	-327.66
	1117	223.6	4.39978E-001	-9.04167E-011	0.00000E+000	4.40000E-001	9.88522E-004	4	..........a	-327.66
	1118	223.8	4.29938E-001	-9.38368E-011	0.00000E+000	4.30000E-001	9.89022E-004	4	..........a	-327.66
	1119	224	4.20027E-001	-9.74669E-011	0.00000E+000	4.20000E-001	9.96322E-004	4	..........a	-327.66
	1120	224.2	4.09947E-001	-1.01105E-010	0.00000E+000	4.10000E-001	9.77722E-004	4	..........a	-327.66

File: 20240321_O_GM0016_HL03_E04_CV50.DTA
EXPLAIN
TAG	CV
TITLE	LABEL	Cyclic Voltammetry	Test &Identifier
DATE	LABEL	3/21/2024	Date
TIME	LABEL	17:09:26	Time
NOTES	NOTES	1	&Notes...

PSTAT	PSTAT	REF600P-43058	Potentiostat
VINIT	POTEN	0.00000E+000	T	Initial &E (V)
VLIMIT1	POTEN	-6.00000E-001	F	Scan Limit &1 (V)
VLIMIT2	POTEN	8.00000E-001	F	Scan Limit &2 (V)
VFINAL	POTEN	0.00000E+000	T	Final &E (V)
SCANRATE	QUANT	4.99999E+001	&Scan Rate (mV/s)
STEPSIZE	QUANT	1.00000E+001	St&ep Size (mV)
CYCLES	IQUANT	4	C&ycles (#)
IMODE	SELECTOR	1	I/E Range &Mode
IRANGE	QUANT	1.00000E-005	&Max Current (mA)
AREA	QUANT	1.00000E+000	Electrode &Area (cm^2)
ELECTRODETYPE	SELECTOR	0	Electrode Type
STRIPPING	TOGGLE	F	Used for Stripping
POLARITY	TOGGLE	F	Signal Polarity
CONDIT	TWOPARAM	F	1.50000E+001	0.00000E+000	Conditionin&g	Time(s)	E(V)
DELAY	TWOPARAM	T	1.00000E+001	0.00000E+000	Init. De&lay	Time(s)	Stab.(mV/s)
EQDELAY	QUANT	1.00000E+001	Equil. &Time (s)
IRCOMP	SELECTOR	0	IRCom&p
PFCOR	QUANT	5.00000E+001	PF Corr. (ohm)
SAMPLINGMODE	SELECTOR	1	Sampling &Mode
OCVCURVE	TABLE	39
	Pt	T	Vf	Vm	Ach	Over	Temp
	#	s	V vs. Ref.	V	V	bits	deg C
	0	0.258333	3.55990E-001	3.55990E-001	2.51556E-004	..........a	-327.66
	1	0.516667	3.55992E-001	3.56087E-001	2.45956E-004	..........a	-327.66
	2	0.775	3.56008E-001	3.56393E-001	2.29156E-004	..........a	-327.66
	3	1.03333	3.56066E-001	3.56767E-001	2.42489E-004	..........a	-327.66
	4	1.29167	3.56203E-001	3.57052E-001	2.36822E-004	..........a	-327.66
	5	1.55	3.56431E-001	3.57573E-001	2.50689E-004	..........a	-327.66
	6	1.80833	3.56732E-001	3.57722E-001	2.50089E-004	..........a	-327.66
	7	2.06667	3.57072E-001	3.58030E-001	2.35489E-004	..........a	-327.66
	8	2.325	3.57410E-001	3.58404E-001	2.49556E-004	..........a	-327.66
	9	2.58333	3.57731E-001	3.58685E-001	2.36489E-004	..........a	-327.66
	10	2.84167	3.58047E-001	3.59204E-001	2.51422E-004	..........a	-327.66
	11	3.1	3.58376E-001	3.59406E-001	2.38756E-004	..........a	-327.66
	12	3.35833	3.58722E-001	3.59729E-001	2.32222E-004	..........a	-327.66
	13	3.61667	3.59067E-001	3.60058E-001	2.52956E-004	..........a	-327.66
	14	3.875	3.59398E-001	3.60380E-001	2.49956E-004	..........a	-327.66
	15	4.13333	3.59720E-001	3.60820E-001	2.49556E-004	..........a	-327.66
	16	4.39167	3.60048E-001	3.61039E-001	2.40822E-004	..........a	-327.66
	17	4.65	3.60384E-001	3.61385E-001	2.39356E-004	..........a	-327.66
	18	4.90833	3.60718E-001	3.61736E-001	2.54822E-004	..........a	-327.66
	19	5.16667	3.61048E-001	3.62146E-001	2.32556E-004	..........a	-327.66
	20	5.425	3.61383E-001	3.62445E-001	2.52089E-004	..........a	-327.66
	21	5.68333	3.61727E-001	3.62698E-001	2.33422E-004	..........a	-327.66
	22	5.94167	3.62068E-001	3.63068E-001	2.39622E-004	..........a	-327.66
	23	6.2	3.62396E-001	3.63421E-001	2.37622E-004	..........a	-327.66
	24	6.45833	3.62721E-001	3.63820E-001	2.36822E-004	..........a	-327.66
	25	6.71667	3.63057E-001	3.64119E-001	2.55089E-004	..........a	-327.66
	26	6.975	3.63402E-001	3.64358E-001	2.32422E-004	..........a	-327.66
	27	7.23333	3.63742E-001	3.64736E-001	2.39689E-004	..........a	-327.66
	28	7.49167	3.64067E-001	3.65051E-001	2.36489E-004	..........a	-327.66
	29	7.75	3.64386E-001	3.65475E-001	2.40022E-004	..........a	-327.66
	30	8.00833	3.64713E-001	3.65729E-001	2.41822E-004	..........a	-327.66
	31	8.26667	3.65050E-001	3.66034E-001	2.34689E-004	..........a	-327.66
	32	8.525	3.65385E-001	3.66353E-001	2.38889E-004	..........a	-327.66
	33	8.78333	3.65708E-001	3.66688E-001	2.30222E-004	..........a	-327.66
	34	9.04167	3.66025E-001	3.67104E-001	2.32022E-004	..........a	-327.66
	35	9.3	3.66350E-001	3.67375E-001	2.41022E-004	..........a	-327.66
	36	9.5583	3.66685E-001	3.67660E-001	2.30489E-004	..........a	-327.66
	37	9.8167	3.67019E-001	3.67996E-001	2.50689E-004	..........a	-327.66
	38	10.075	3.67342E-001	3.68288E-001	2.42289E-004	..........a	-327.66
EOC	QUANT	0.3673421	Open Circuit (V)
PSTATMODEL	IQUANT	7	Pstat Model
PSTATSECTION	LABEL	REF600P-43058	Pstat Section
PSTATSERIALNO	LABEL	43058	Pstat Serial Number
CTRLMODE	IQUANT	1	Control Mode
ELECTROMETER	IQUANT	0	RE=0 or CS=1
IESTAB	IQUANT	2	I/E Stability
CASPEED	IQUANT	4	Control Amp Speed
CONVENTION	IQUANT	1	Current Convention
ICHRANGE	IQUANT	2	Ich Range
ICHRANGEMODE	TOGGLE	F	Ich Auto Range
ICHOFFSETENABLE	TOGGLE	F	Ich Offset Enable
ICHOFFSET	QUANT	0	Ich Offset (V)
ICHFILTER	IQUANT	2	Ich Filter
VCHRANGE	IQUANT	2	Vch Range
VCHRANGEMODE	TOGGLE	F	Vch Auto Range
VCHOFFSETENABLE	TOGGLE	F	Vch Offset Enable
VCHOFFSET	QUANT	0	Vch Offset (V)
VCHFILTER	IQUANT	2	Vch Filter
ACHRANGE	IQUANT	2	Ach Range
ACHOFFSETENABLE	TOGGLE	F	Ach Offset Enable
ACHOFFSET	QUANT	0	Ach Offset (V)
ACHFILTER	IQUANT	1	Ach Filter
IERANGELOWERLIMIT	IQUANT	1	I/E Range Lower Limit
IERANGEMODE	TOGGLE	F	I/E AutoRange
IERANGE	IQUANT	4	I/E Range
POSFEEDENABLE	TOGGLE	F	Positive Feedback IR Comp
POSFEEDRESISTANCE	QUANT	0	Positive Feedback Resistance (ohm)
ACHSELECT	IQUANT	4	Ach Select
SENSECABLEID	IQUANT	7	Sense Cable ID
PWRCABLEID	IQUANT	7	Power Cable ID
DCCALDATE	LABEL	12/18/2023	DC Calibration Date
ACCALDATE	LABEL	12/18/2023	AC Calibration Date
THERMOSELECT	IQUANT	1	Thermo Select
FRAMEWORKVERSION	LABEL	7.8.4	Framework Version
INSTRUMENTVERSION	LABEL	4.42	Instrument Version
CURVE1	TABLE
	Pt	T	Vf	Im	Vu	Sig	Ach	IERange	Over	Temp
	#	s	V vs. Ref.	A	V	V	V	#	bits	deg C
	0	0.2	3.67348E-001	1.19943E-011	0.00000E+000	3.67350E-001	9.84922E-004	4	..........a	-327.66
	3	0.8	3.37338E-001	-4.68720E-011	0.00000E+000	3.37350E-001	9.76222E-004	4	..........a	-327.66
	6	1.4	3.07321E-001	-6.25546E-011	0.00000E+000	3.07350E-001	9.88822E-004	4	..........a	-327.66
	9	2	2.77379E-001	-7.48281E-011	0.00000E+000	2.77350E-001	9.71722E-004	4	..........a	-327.66
	12	2.6	2.47305E-001	-8.51125E-011	0.00000E+000	2.47350E-001	9.79722E-004	4	..........a	-327.66
	15	3.2	2.17364E-001	-9.18107E-011	0.00000E+000	2.17350E-001	9.82422E-004	4	..........a	-327.66
	18	3.8	1.87382E-001	-9.80940E-011	0.00000E+000	1.87350E-001	9.79822E-004	4	..........a	-327.66
	21	4.4	1.57434E-001	-1.01119E-010	0.00000E+000	1.57350E-001	9.81922E-004	4	..........a	-327.66
	24	5	1.27368E-001	-1.03906E-010	0.00000E+000	1.27350E-001	9.95922E-004	4	..........a	-327.66
	27	5.6	9.73285E-002	-1.05527E-010	0.00000E+000	9.73500E-002	9.83722E-004	4	..........a	-327.66
	30	6.2	6.73871E-002	-1.07838E-010	0.00000E+000	6.73500E-002	9.86122E-004	4	..........a	-327.66
	33	6.8	3.74196E-002	-1.10415E-010	0.00000E+000	3.73500E-002	9.91322E-004	4	..........a	-327.66
	36	7.4	7.39399E-003	-1.13784E-010	0.00000E+000	7.35001E-003	9.79022E-004	4	..........a	-327.66
	39	8	-2.26523E-002	-1.17165E-010	0.00000E+000	-2.26500E-002	1.00852E-003	4	..........a	-327.66
	42	8.6	-5.26197E-002	-1.22725E-010	0.00000E+000	-5.26500E-002	9.75022E-004	4	..........a	-327.66
	45	9.2	-8.25415E-002	-1.32654E-010	0.00000E+000	-8.26500E-002	9.80622E-004	4	..........a	-327.66
	48	9.8	-1.12662E-001	-1.43972E-010	0.00000E+000	-1.12650E-001	9.74322E-004	4	..........a	-327.66
	51	10.4	-1.42622E-001	-1.58545E-010	0.00000E+000	-1.42650E-001	9.76522E-004	4	..........a	-327.66
	54	11	-1.72630E-001	-1.77071E-010	0.00000E+000	-1.72650E-001	9.82322E-004	4	..........a	-327.66
	57	11.6	-2.02592E-001	-2.00955E-010	0.00000E+000	-2.02650E-001	9.72222E-004	4	..........a	-327.66
	60	12.2	-2.32597E-001	-2.32287E-010	0.00000E+000	-2.32650E-001	1.00582E-003	4	..........a	-327.66
[...]
	1085	217.2	7.19958E-001	1.96156E-011	0.00000E+000	7.20000E-001	1.00852E-003	4	..........a	-327.66
	1086	217.4	7.09888E-001	4.87999E-012	0.00000E+000	7.10000E-001	1.01162E-003	4	..........a	-327.66
	1087	217.6	6.99970E-001	-6.85446E-012	0.00000E+000	7.00000E-001	9.98622E-004	4	..........a	-327.66
	1088	217.8	6.89910E-001	-1.77559E-011	0.00000E+000	6.90000E-001	1.00262E-003	4	..........a	-327.66
	1089	218	6.79910E-001	-2.70452E-011	0.00000E+000	6.80000E-001	1.02022E-003	4	..........a	-327.66
	1090	218.2	6.69914E-001	-3.56516E-011	0.00000E+000	6.70000E-001	9.83722E-004	4	..........a	-327.66
	1091	218.4	6.60018E-001	-3.99367E-011	0.00000E+000	6.60000E-001	1.01352E-003	4	..........a	-327.66
	1092	218.6	6.49926E-001	-4.52489E-011	0.00000E+000	6.50000E-001	1.01322E-003	4	..........a	-327.66
	1093	218.8	6.39937E-001	-5.16142E-011	0.00000E+000	6.40000E-001	1.01522E-003	4	..........a	-327.66
	1094	219	6.29943E-001	-5.58793E-011	0.00000E+000	6.30000E-001	1.00672E-003	4	..........a	-327.66
	1095	219.2	6.20008E-001	-5.95955E-011	0.00000E+000	6.20000E-001	1.02092E-003	4	..........a	-327.66
	1096	219.4	6.09957E-001	-6.45177E-011	0.00000E+000	6.10000E-001	1.01562E-003	4	..........a	-327.66
	1097	219.6	5.99950E-001	-6.81648E-011	0.00000E+000	6.00000E-001	1.00712E-003	4	..........a	-327.66
	1098	219.8	5.89984E-001	-7.10359E-011	0.00000E+000	5.90000E-001	1.01082E-003	4	..........a	-327.66
	1099	220	5.80039E-001	-7.39230E-011	0.00000E+000	5.80000E-001	1.02202E-003	4	..........a	-327.66
	1100	220.2	5.69959E-001	-7.74582E-011	0.00000E+000	5.70000E-001	1.00202E-003	4	..........a	-327.66
	1101	220.4	5.59954E-001	-8.04613E-011	0.00000E+000	5.60000E-001	1.02472E-003	4	..........a	-327.66
	1102	220.6	5.49969E-001	-8.27244E-011	0.00000E+000	5.50000E-001	9.87822E-004	4	..........a	-327.66
	1103	220.8	5.40013E-001	-8.57835E-011	0.00000E+000	5.40000E-001	9.99522E-004	4	..........a	-327.66
	1104	221	5.30043E-001	-8.91966E-011	0.00000E+000	5.30000E-001	9.81422E-004	4	..........a	-327.66
	1105	221.2	5.19966E-001	-9.14747E-011	0.00000E+000	5.20000E-001	1.01432E-003	4	..........a	-327.66
	1106	221.4	5.09941E-001	-9.41808E-011	0.00000E+000	5.10000E-001	9.97022E-004	4	..........a	-327.66
	1107	221.6	5.00071E-001	-9.62339E-011	0.00000E+000	5.00000E-001	1.00852E-003	4	..........a	-327.66
	1108	221.8	4.89974E-001	-9.99280E-011	0.00000E+000	4.90000E-001	9.88722E-004	4	..........a	-327.66
	1109	222	4.79982E-001	-1.02469E-010	0.00000E+000	4.80000E-001	1.00322E-003	4	..........a	-327.66
	1110	222.2	4.69970E-001	-1.05592E-010	0.00000E+000	4.70000E-001	9.82622E-004	4	..........a	-327.66
	1111	222.4	4.60021E-001	-1.08250E-010	0.00000E+000	4.60000E-001	9.99522E-004	4	..........a	-327.66
	1112	222.6	4.49963E-001	-1.11218E-010	0.00000E+000	4.50000E-001	1.00892E-003	4	..........a	-327.66
	1113	222.8	4.39984E-001	-1.13872E-010	0.00000E+000	4.40000E-001	1.00912E-003	4	..........a	-327.66
	1114	223	4.29958E-001	-1.16400E-010	0.00000E+000	4.30000E-001	1.01302E-003	4	..........a	-327.66
	1115	223.2	4.20033E-001	-1.19132E-010	0.00000E+000	4.20000E-001	1.00882E-003	4	..........a	-327.66
	1116	223.4	4.09983E-001	-1.21940E-010	0.00000E+000	4.10000E-001	9.83522E-004	4	..........a	-327.66
	1117	223.6	4.00015E-001	-1.24888E-010	0.00000E+000	4.00000E-001	1.01342E-003	4	..........a	-327.66
	1118	223.8	3.89980E-001	-1.26828E-010	0.00000E+000	3.90000E-001	9.94622E-004	4	..........a	-327.66
	1119	224	3.80007E-001	-1.30526E-010	0.00000E+000	3.80000E-001	1.01142E-003	4	..........a	-327.66
	1120	224.2	3.70002E-001	-1.32234E-010	0.00000E+000	3.70000E-001	9.98922E-004	4	..........a	-327.66