Folder: GamryParser/data/raw/batch_data (part 10)

File: 20240424_G_GM0016_HL03_E02_CV50.DTA
EXPLAIN
TAG	CV
TITLE	LABEL	Cyclic Voltammetry	Test &Identifier
DATE	LABEL	4/24/2024	Date
TIME	LABEL	17:03:10	Time
NOTES	NOTES	1	&Notes...

PSTAT	PSTAT	REF600P-43058	Potentiostat
VINIT	POTEN	0.00000E+000	T	Initial &E (V)
VLIMIT1	POTEN	-6.00000E-001	F	Scan Limit &1 (V)
VLIMIT2	POTEN	8.00000E-001	F	Scan Limit &2 (V)
VFINAL	POTEN	0.00000E+000	T	Final &E (V)
SCANRATE	QUANT	4.99999E+001	&Scan Rate (mV/s)
STEPSIZE	QUANT	1.00000E+001	St&ep Size (mV)
CYCLES	IQUANT	4	C&ycles (#)
IMODE	SELECTOR	0	I/E Range &Mode
IRANGE	QUANT	1.00000E-005	&Max Current (mA)
AREA	QUANT	1.00000E+000	Electrode &Area (cm^2)
ELECTRODETYPE	SELECTOR	0	Electrode Type
STRIPPING	TOGGLE	F	Used for Stripping
POLARITY	TOGGLE	F	Signal Polarity
CONDIT	TWOPARAM	F	1.50000E+001	0.00000E+000	Conditionin&g	Time(s)	E(V)
DELAY	TWOPARAM	T	1.00000E+001	0.00000E+000	Init. De&lay	Time(s)	Stab.(mV/s)
EQDELAY	QUANT	1.00000E+001	Equil. &Time (s)
IRCOMP	SELECTOR	0	IRCom&p
PFCOR	QUANT	5.00000E+001	PF Corr. (ohm)
SAMPLINGMODE	SELECTOR	1	Sampling &Mode
OCVCURVE	TABLE	39
	Pt	T	Vf	Vm	Ach	Over	Temp
	#	s	V vs. Ref.	V	V	bits	deg C
	0	0.258333	-1.48000E-001	-1.48000E-001	2.32726E-004	..........a	-327.66
	1	0.516667	-1.47985E-001	-1.47233E-001	2.37926E-004	..........a	-327.66
	2	0.775	-1.47896E-001	-1.46517E-001	2.39926E-004	..........a	-327.66
	3	1.03333	-1.47643E-001	-1.45845E-001	2.29526E-004	..........a	-327.66
	4	1.29167	-1.47193E-001	-1.45220E-001	2.39992E-004	..........a	-327.66
	5	1.55	-1.46601E-001	-1.44631E-001	2.24526E-004	..........a	-327.66
	6	1.80833	-1.45955E-001	-1.44086E-001	2.32192E-004	..........a	-327.66
	7	2.06667	-1.45316E-001	-1.43579E-001	2.40459E-004	..........a	-327.66
	8	2.325	-1.44715E-001	-1.43104E-001	2.37059E-004	..........a	-327.66
	9	2.58333	-1.44159E-001	-1.42671E-001	2.43592E-004	..........a	-327.66
	10	2.84167	-1.43644E-001	-1.42257E-001	2.37059E-004	..........a	-327.66
	11	3.1	-1.43167E-001	-1.41880E-001	2.32659E-004	..........a	-327.66
	12	3.35833	-1.42724E-001	-1.41534E-001	2.49992E-004	..........a	-327.66
	13	3.61667	-1.42313E-001	-1.41210E-001	2.25859E-004	..........a	-327.66
	14	3.875	-1.41932E-001	-1.40903E-001	2.33326E-004	..........a	-327.66
	15	4.13333	-1.41578E-001	-1.40620E-001	2.23659E-004	..........a	-327.66
	16	4.39167	-1.41249E-001	-1.40356E-001	2.26659E-004	..........a	-327.66
	17	4.65	-1.40943E-001	-1.40125E-001	2.27526E-004	..........a	-327.66
	18	4.90833	-1.40658E-001	-1.39907E-001	2.23059E-004	..........a	-327.66
	19	5.16667	-1.40396E-001	-1.39709E-001	2.35659E-004	..........a	-327.66
	20	5.425	-1.40157E-001	-1.39536E-001	2.44259E-004	..........a	-327.66
	21	5.68333	-1.39938E-001	-1.39367E-001	2.29859E-004	..........a	-327.66
	22	5.94167	-1.39739E-001	-1.39215E-001	2.31192E-004	..........a	-327.66
	23	6.2	-1.39557E-001	-1.39073E-001	2.34126E-004	..........a	-327.66
	24	6.45833	-1.39390E-001	-1.38965E-001	2.29792E-004	..........a	-327.66
	25	6.71667	-1.39238E-001	-1.38860E-001	2.29526E-004	..........a	-327.66
	26	6.975	-1.39102E-001	-1.38756E-001	2.33659E-004	..........a	-327.66
	27	7.23333	-1.38981E-001	-1.38676E-001	2.40259E-004	..........a	-327.66
	28	7.49167	-1.38872E-001	-1.38599E-001	2.34326E-004	..........a	-327.66
	29	7.75	-1.38775E-001	-1.38548E-001	2.27392E-004	..........a	-327.66
	30	8.00833	-1.38691E-001	-1.38496E-001	2.35726E-004	..........a	-327.66
	31	8.26667	-1.38618E-001	-1.38448E-001	2.22526E-004	..........a	-327.66
	32	8.525	-1.38556E-001	-1.38422E-001	2.40192E-004	..........a	-327.66
	33	8.78333	-1.38505E-001	-1.38406E-001	2.38726E-004	..........a	-327.66
	34	9.04167	-1.38463E-001	-1.38394E-001	2.39659E-004	..........a	-327.66
	35	9.3	-1.38432E-001	-1.38385E-001	2.41726E-004	..........a	-327.66
	36	9.5583	-1.38411E-001	-1.38378E-001	2.31592E-004	..........a	-327.66
	37	9.8167	-1.38397E-001	-1.38396E-001	2.33992E-004	..........a	-327.66
	38	10.075	-1.38390E-001	-1.38410E-001	2.34659E-004	..........a	-327.66
EOC	QUANT	-0.1383899	Open Circuit (V)
PSTATMODEL	IQUANT	7	Pstat Model
PSTATSECTION	LABEL	REF600P-43058	Pstat Section
PSTATSERIALNO	LABEL	43058	Pstat Serial Number
CTRLMODE	IQUANT	1	Control Mode
ELECTROMETER	IQUANT	0	RE=0 or CS=1
IESTAB	IQUANT	2	I/E Stability
CASPEED	IQUANT	4	Control Amp Speed
CONVENTION	IQUANT	1	Current Convention
ICHRANGE	IQUANT	2	Ich Range
ICHRANGEMODE	TOGGLE	F	Ich Auto Range
ICHOFFSETENABLE	TOGGLE	F	Ich Offset Enable
ICHOFFSET	QUANT	0	Ich Offset (V)
ICHFILTER	IQUANT	2	Ich Filter
VCHRANGE	IQUANT	2	Vch Range
VCHRANGEMODE	TOGGLE	F	Vch Auto Range
VCHOFFSETENABLE	TOGGLE	F	Vch Offset Enable
VCHOFFSET	QUANT	0	Vch Offset (V)
VCHFILTER	IQUANT	2	Vch Filter
ACHRANGE	IQUANT	2	Ach Range
ACHOFFSETENABLE	TOGGLE	F	Ach Offset Enable
ACHOFFSET	QUANT	0	Ach Offset (V)
ACHFILTER	IQUANT	1	Ach Filter
IERANGELOWERLIMIT	IQUANT	1	I/E Range Lower Limit
IERANGEMODE	TOGGLE	T	I/E AutoRange
IERANGE	IQUANT	4	I/E Range
POSFEEDENABLE	TOGGLE	F	Positive Feedback IR Comp
POSFEEDRESISTANCE	QUANT	0	Positive Feedback Resistance (ohm)
ACHSELECT	IQUANT	4	Ach Select
SENSECABLEID	IQUANT	7	Sense Cable ID
PWRCABLEID	IQUANT	7	Power Cable ID
DCCALDATE	LABEL	3/22/2024	DC Calibration Date
ACCALDATE	LABEL	3/22/2024	AC Calibration Date
THERMOSELECT	IQUANT	1	Thermo Select
FRAMEWORKVERSION	LABEL	7.8.4	Framework Version
INSTRUMENTVERSION	LABEL	4.42	Instrument Version
CURVE1	TABLE
	Pt	T	Vf	Im	Vu	Sig	Ach	IERange	Over	Temp
	#	s	V vs. Ref.	A	V	V	V	#	bits	deg C
	0	0.2	-1.38366E-001	8.10237E-010	0.00000E+000	-1.38400E-001	9.64192E-004	5	..........a	-327.66
	2	0.6	-1.58344E-001	-3.88116E-009	0.00000E+000	-1.58400E-001	9.76392E-004	5	..........a	-327.66
	4	1	-1.78349E-001	-6.94972E-009	0.00000E+000	-1.78400E-001	9.55292E-004	5	..........a	-327.66
	6	1.4	-1.98319E-001	-9.56095E-009	0.00000E+000	-1.98400E-001	9.78992E-004	5	..........a	-327.66
	8	1.8	-2.18289E-001	-1.19608E-008	0.00000E+000	-2.18400E-001	9.66092E-004	5	..........a	-327.66
	10	2.2	-2.38303E-001	-1.42476E-008	0.00000E+000	-2.38400E-001	9.98492E-004	5	..........a	-327.66
	12	2.6	-2.58253E-001	-1.64414E-008	0.00000E+000	-2.58400E-001	9.84692E-004	5	..........a	-327.66
	14	3	-2.78288E-001	-1.86105E-008	0.00000E+000	-2.78400E-001	9.91992E-004	5	..........a	-327.66
	16	3.4	-2.98265E-001	-2.08046E-008	0.00000E+000	-2.98400E-001	9.65192E-004	5	..........a	-327.66
	18	3.8	-3.18267E-001	-2.29350E-008	0.00000E+000	-3.18400E-001	9.65492E-004	5	..........a	-327.66
	20	4.2	-3.38246E-001	-2.51395E-008	0.00000E+000	-3.38400E-001	9.68992E-004	5	..........a	-327.66
	22	4.6	-3.58345E-001	-2.73822E-008	0.00000E+000	-3.58400E-001	9.93692E-004	5	..........a	-327.66
	24	5	-3.78257E-001	-2.96820E-008	0.00000E+000	-3.78400E-001	9.90692E-004	5	..........a	-327.66
	26	5.4	-3.98280E-001	-3.20673E-008	0.00000E+000	-3.98400E-001	9.69592E-004	5	..........a	-327.66
	28	5.8	-4.18211E-001	-3.44765E-008	0.00000E+000	-4.18400E-001	9.58292E-004	5	..........a	-327.66
	30	6.2	-4.38269E-001	-3.69093E-008	0.00000E+000	-4.38400E-001	9.92192E-004	5	..........a	-327.66
	32	6.6	-4.58215E-001	-3.93328E-008	0.00000E+000	-4.58400E-001	9.79192E-004	5	..........a	-327.66
	34	7	-4.78247E-001	-4.17989E-008	0.00000E+000	-4.78400E-001	9.85992E-004	5	..........a	-327.66
	36	7.4	-4.98175E-001	-4.42208E-008	0.00000E+000	-4.98400E-001	9.92992E-004	5	..........a	-327.66
	38	7.8	-5.18258E-001	-4.66505E-008	0.00000E+000	-5.18400E-001	9.77692E-004	5	..........a	-327.66
[...]
	1085	217.2	2.10037E-001	-1.87669E-008	0.00000E+000	2.10000E-001	9.72792E-004	5	..........a	-327.66
	1086	217.4	2.00074E-001	-2.02888E-008	0.00000E+000	2.00000E-001	9.84392E-004	5	..........a	-327.66
	1087	217.6	1.90115E-001	-2.15835E-008	0.00000E+000	1.90000E-001	9.75992E-004	5	..........a	-327.66
	1088	217.8	1.80097E-001	-2.26639E-008	0.00000E+000	1.80000E-001	9.60692E-004	5	..........a	-327.66
	1089	218	1.70100E-001	-2.34610E-008	0.00000E+000	1.70000E-001	9.85592E-004	5	..........a	-327.66
	1090	218.2	1.60075E-001	-2.39522E-008	0.00000E+000	1.60000E-001	9.87892E-004	5	..........a	-327.66
	1091	218.4	1.50113E-001	-2.41988E-008	0.00000E+000	1.50000E-001	9.83392E-004	5	..........a	-327.66
	1092	218.6	1.40134E-001	-2.42214E-008	0.00000E+000	1.40000E-001	9.65492E-004	5	..........a	-327.66
	1093	218.8	1.30098E-001	-2.40253E-008	0.00000E+000	1.30000E-001	9.84692E-004	5	..........a	-327.66
	1094	219	1.20072E-001	-2.36057E-008	0.00000E+000	1.20000E-001	9.75892E-004	5	..........a	-327.66
	1095	219.2	1.10110E-001	-2.30716E-008	0.00000E+000	1.10000E-001	9.78792E-004	5	..........a	-327.66
	1096	219.4	1.00122E-001	-2.24836E-008	0.00000E+000	1.00000E-001	9.59092E-004	5	..........a	-327.66
	1097	219.6	9.00938E-002	-2.18564E-008	0.00000E+000	9.00000E-002	9.57192E-004	5	..........a	-327.66
	1098	219.8	8.00686E-002	-2.12563E-008	0.00000E+000	8.00000E-002	9.78692E-004	5	..........a	-327.66
	1099	220	7.00649E-002	-2.07815E-008	0.00000E+000	7.00000E-002	9.72392E-004	5	..........a	-327.66
	1100	220.2	6.01230E-002	-2.04050E-008	0.00000E+000	6.00000E-002	9.69492E-004	5	..........a	-327.66
	1101	220.4	5.00811E-002	-2.02215E-008	0.00000E+000	5.00000E-002	9.81092E-004	5	..........a	-327.66
	1102	220.6	4.01037E-002	-2.01830E-008	0.00000E+000	4.00000E-002	9.69992E-004	5	..........a	-327.66
	1103	220.8	3.00994E-002	-2.01923E-008	0.00000E+000	3.00000E-002	9.71092E-004	5	..........a	-327.66
	1104	221	2.01572E-002	-2.03193E-008	0.00000E+000	2.00000E-002	9.62092E-004	5	..........a	-327.66
	1105	221.2	1.01188E-002	-2.05467E-008	0.00000E+000	1.00000E-002	9.74092E-004	5	..........a	-327.66
	1106	221.4	7.14416E-005	-2.08551E-008	0.00000E+000	7.45058E-009	9.85092E-004	5	..........a	-327.66
	1107	221.6	-9.86396E-003	-2.12192E-008	0.00000E+000	-1.00000E-002	9.70792E-004	5	..........a	-327.66
	1108	221.8	-1.99113E-002	-2.17168E-008	0.00000E+000	-2.00000E-002	9.73792E-004	5	..........a	-327.66
	1109	222	-2.99317E-002	-2.23077E-008	0.00000E+000	-3.00000E-002	9.75192E-004	5	..........a	-327.66
	1110	222.2	-3.99142E-002	-2.28982E-008	0.00000E+000	-4.00000E-002	9.78392E-004	5	..........a	-327.66
	1111	222.4	-4.98822E-002	-2.35619E-008	0.00000E+000	-5.00000E-002	9.67192E-004	5	..........a	-327.66
	1112	222.6	-5.98910E-002	-2.42589E-008	0.00000E+000	-6.00000E-002	9.70892E-004	5	..........a	-327.66
	1113	222.8	-6.98872E-002	-2.50271E-008	0.00000E+000	-7.00000E-002	9.64792E-004	5	..........a	-327.66
	1114	223	-7.99143E-002	-2.58064E-008	0.00000E+000	-8.00000E-002	9.81392E-004	5	..........a	-327.66
	1115	223.2	-8.99037E-002	-2.66215E-008	0.00000E+000	-9.00000E-002	9.80992E-004	5	..........a	-327.66
	1116	223.4	-9.98985E-002	-2.74809E-008	0.00000E+000	-1.00000E-001	9.55792E-004	5	..........a	-327.66
	1117	223.6	-1.09958E-001	-2.82663E-008	0.00000E+000	-1.10000E-001	9.80992E-004	5	..........a	-327.66
	1118	223.8	-1.19902E-001	-2.90603E-008	0.00000E+000	-1.20000E-001	9.70292E-004	5	..........a	-327.66
	1119	224	-1.29904E-001	-2.98863E-008	0.00000E+000	-1.30000E-001	9.73792E-004	5	..........a	-327.66
	1120	224.2	-1.39924E-001	-3.06672E-008	0.00000E+000	-1.40000E-001	9.55492E-004	5	..........a	-327.66

File: 20240424_K_GM0016_HL03_E03_CV50.DTA
EXPLAIN
TAG	CV
TITLE	LABEL	Cyclic Voltammetry	Test &Identifier
DATE	LABEL	4/24/2024	Date
TIME	LABEL	17:17:03	Time
NOTES	NOTES	1	&Notes...

PSTAT	PSTAT	REF600P-43058	Potentiostat
VINIT	POTEN	0.00000E+000	T	Initial &E (V)
VLIMIT1	POTEN	-6.00000E-001	F	Scan Limit &1 (V)
VLIMIT2	POTEN	8.00000E-001	F	Scan Limit &2 (V)
VFINAL	POTEN	0.00000E+000	T	Final &E (V)
SCANRATE	QUANT	4.99999E+001	&Scan Rate (mV/s)
STEPSIZE	QUANT	1.00000E+001	St&ep Size (mV)
CYCLES	IQUANT	4	C&ycles (#)
IMODE	SELECTOR	0	I/E Range &Mode
IRANGE	QUANT	1.00000E-005	&Max Current (mA)
AREA	QUANT	1.00000E+000	Electrode &Area (cm^2)
ELECTRODETYPE	SELECTOR	0	Electrode Type
STRIPPING	TOGGLE	F	Used for Stripping
POLARITY	TOGGLE	F	Signal Polarity
CONDIT	TWOPARAM	F	1.50000E+001	0.00000E+000	Conditionin&g	Time(s)	E(V)
DELAY	TWOPARAM	T	1.00000E+001	0.00000E+000	Init. De&lay	Time(s)	Stab.(mV/s)
EQDELAY	QUANT	1.00000E+001	Equil. &Time (s)
IRCOMP	SELECTOR	0	IRCom&p
PFCOR	QUANT	5.00000E+001	PF Corr. (ohm)
SAMPLINGMODE	SELECTOR	1	Sampling &Mode
OCVCURVE	TABLE	39
	Pt	T	Vf	Vm	Ach	Over	Temp
	#	s	V vs. Ref.	V	V	bits	deg C
	0	0.258333	-1.84780E-001	-1.84780E-001	2.26726E-004	..........a	-327.66
	1	0.516667	-1.84786E-001	-1.85093E-001	2.25592E-004	..........a	-327.66
	2	0.775	-1.84823E-001	-1.85395E-001	2.22392E-004	..........a	-327.66
	3	1.03333	-1.84928E-001	-1.85708E-001	2.15726E-004	..........a	-327.66
	4	1.29167	-1.85118E-001	-1.86007E-001	2.22126E-004	..........a	-327.66
	5	1.55	-1.85377E-001	-1.86308E-001	2.15059E-004	..........a	-327.66
	6	1.80833	-1.85671E-001	-1.86605E-001	2.18192E-004	..........a	-327.66
	7	2.06667	-1.85975E-001	-1.86898E-001	2.24659E-004	..........a	-327.66
	8	2.325	-1.86279E-001	-1.87190E-001	2.25392E-004	..........a	-327.66
	9	2.58333	-1.86578E-001	-1.87438E-001	2.22926E-004	..........a	-327.66
	10	2.84167	-1.86867E-001	-1.87631E-001	2.32126E-004	..........a	-327.66
	11	3.1	-1.87139E-001	-1.87808E-001	2.19926E-004	..........a	-327.66
	12	3.35833	-1.87383E-001	-1.87976E-001	2.12726E-004	..........a	-327.66
	13	3.61667	-1.87597E-001	-1.88140E-001	2.10326E-004	..........a	-327.66
	14	3.875	-1.87787E-001	-1.88300E-001	2.10192E-004	..........a	-327.66
	15	4.13333	-1.87961E-001	-1.88472E-001	2.12592E-004	..........a	-327.66
	16	4.39167	-1.88128E-001	-1.88651E-001	2.26259E-004	..........a	-327.66
	17	4.65	-1.88295E-001	-1.88839E-001	2.15126E-004	..........a	-327.66
	18	4.90833	-1.88466E-001	-1.89041E-001	2.25059E-004	..........a	-327.66
	19	5.16667	-1.88645E-001	-1.89236E-001	2.18792E-004	..........a	-327.66
	20	5.425	-1.88832E-001	-1.89445E-001	2.20592E-004	..........a	-327.66
	21	5.68333	-1.89026E-001	-1.89660E-001	2.19659E-004	..........a	-327.66
	22	5.94167	-1.89227E-001	-1.89878E-001	2.07259E-004	..........a	-327.66
	23	6.2	-1.89434E-001	-1.90100E-001	2.29859E-004	..........a	-327.66
	24	6.45833	-1.89646E-001	-1.90329E-001	2.27859E-004	..........a	-327.66
	25	6.71667	-1.89864E-001	-1.90561E-001	2.28326E-004	..........a	-327.66
	26	6.975	-1.90087E-001	-1.90798E-001	2.22326E-004	..........a	-327.66
	27	7.23333	-1.90314E-001	-1.91028E-001	2.13059E-004	..........a	-327.66
	28	7.49167	-1.90545E-001	-1.91261E-001	2.16792E-004	..........a	-327.66
	29	7.75	-1.90777E-001	-1.91498E-001	2.16259E-004	..........a	-327.66
	30	8.00833	-1.91010E-001	-1.91730E-001	2.09192E-004	..........a	-327.66
	31	8.26667	-1.91244E-001	-1.91968E-001	2.16259E-004	..........a	-327.66
	32	8.525	-1.91478E-001	-1.92203E-001	2.21992E-004	..........a	-327.66
	33	8.78333	-1.91713E-001	-1.92444E-001	2.19126E-004	..........a	-327.66
	34	9.04167	-1.91950E-001	-1.92678E-001	2.20859E-004	..........a	-327.66
	35	9.3	-1.92186E-001	-1.92916E-001	2.18659E-004	..........a	-327.66
	36	9.5583	-1.92423E-001	-1.93146E-001	2.29059E-004	..........a	-327.66
	37	9.8167	-1.92660E-001	-1.93389E-001	2.23059E-004	..........a	-327.66
	38	10.075	-1.92896E-001	-1.93618E-001	2.23059E-004	..........a	-327.66
EOC	QUANT	-0.1928957	Open Circuit (V)
PSTATMODEL	IQUANT	7	Pstat Model
PSTATSECTION	LABEL	REF600P-43058	Pstat Section
PSTATSERIALNO	LABEL	43058	Pstat Serial Number
CTRLMODE	IQUANT	1	Control Mode
ELECTROMETER	IQUANT	0	RE=0 or CS=1
IESTAB	IQUANT	2	I/E Stability
CASPEED	IQUANT	4	Control Amp Speed
CONVENTION	IQUANT	1	Current Convention
ICHRANGE	IQUANT	2	Ich Range
ICHRANGEMODE	TOGGLE	F	Ich Auto Range
ICHOFFSETENABLE	TOGGLE	F	Ich Offset Enable
ICHOFFSET	QUANT	0	Ich Offset (V)
ICHFILTER	IQUANT	2	Ich Filter
VCHRANGE	IQUANT	2	Vch Range
VCHRANGEMODE	TOGGLE	F	Vch Auto Range
VCHOFFSETENABLE	TOGGLE	F	Vch Offset Enable
VCHOFFSET	QUANT	0	Vch Offset (V)
VCHFILTER	IQUANT	2	Vch Filter
ACHRANGE	IQUANT	2	Ach Range
ACHOFFSETENABLE	TOGGLE	F	Ach Offset Enable
ACHOFFSET	QUANT	0	Ach Offset (V)
ACHFILTER	IQUANT	1	Ach Filter
IERANGELOWERLIMIT	IQUANT	1	I/E Range Lower Limit
IERANGEMODE	TOGGLE	T	I/E AutoRange
IERANGE	IQUANT	4	I/E Range
POSFEEDENABLE	TOGGLE	F	Positive Feedback IR Comp
POSFEEDRESISTANCE	QUANT	0	Positive Feedback Resistance (ohm)
ACHSELECT	IQUANT	4	Ach Select
SENSECABLEID	IQUANT	7	Sense Cable ID
PWRCABLEID	IQUANT	7	Power Cable ID
DCCALDATE	LABEL	3/22/2024	DC Calibration Date
ACCALDATE	LABEL	3/22/2024	AC Calibration Date
THERMOSELECT	IQUANT	1	Thermo Select
FRAMEWORKVERSION	LABEL	7.8.4	Framework Version
INSTRUMENTVERSION	LABEL	4.42	Instrument Version
CURVE1	TABLE
	Pt	T	Vf	Im	Vu	Sig	Ach	IERange	Over	Temp
	#	s	V vs. Ref.	A	V	V	V	#	bits	deg C
	0	0.2	-1.92862E-001	1.79423E-009	0.00000E+000	-1.92900E-001	9.58592E-004	5	..........a	-327.66
	2	0.6	-2.12807E-001	-3.93724E-009	0.00000E+000	-2.12900E-001	9.82992E-004	5	..........a	-327.66
	4	1	-2.32811E-001	-7.97732E-009	0.00000E+000	-2.32900E-001	9.58192E-004	5	..........a	-327.66
	6	1.4	-2.52834E-001	-1.15920E-008	0.00000E+000	-2.52900E-001	9.75792E-004	5	..........a	-327.66
	8	1.8	-2.72778E-001	-1.50118E-008	0.00000E+000	-2.72900E-001	9.70892E-004	5	..........a	-327.66
	10	2.2	-2.92821E-001	-1.83512E-008	0.00000E+000	-2.92900E-001	9.64992E-004	5	..........a	-327.66
	12	2.6	-3.12795E-001	-2.16012E-008	0.00000E+000	-3.12900E-001	9.70292E-004	5	..........a	-327.66
	14	3	-3.32844E-001	-2.49541E-008	0.00000E+000	-3.32900E-001	9.55292E-004	5	..........a	-327.66
	16	3.4	-3.52813E-001	-2.80727E-008	0.00000E+000	-3.52900E-001	9.67092E-004	5	..........a	-327.66
	18	3.8	-3.72780E-001	-3.11862E-008	0.00000E+000	-3.72900E-001	9.68292E-004	5	..........a	-327.66
	20	4.2	-3.92762E-001	-3.42505E-008	0.00000E+000	-3.92900E-001	9.73792E-004	5	..........a	-327.66
	22	4.6	-4.12802E-001	-3.74017E-008	0.00000E+000	-4.12900E-001	9.72692E-004	5	..........a	-327.66
	24	5	-4.32758E-001	-4.06181E-008	0.00000E+000	-4.32900E-001	9.68392E-004	5	..........a	-327.66
	26	5.4	-4.52746E-001	-4.39282E-008	0.00000E+000	-4.52900E-001	9.69692E-004	5	..........a	-327.66
	28	5.8	-4.72738E-001	-4.72592E-008	0.00000E+000	-4.72900E-001	9.65492E-004	5	..........a	-327.66
	30	6.2	-4.92766E-001	-5.06864E-008	0.00000E+000	-4.92900E-001	9.67692E-004	5	..........a	-327.66
	32	6.6	-5.12757E-001	-5.42266E-008	0.00000E+000	-5.12900E-001	9.76092E-004	5	..........a	-327.66
	34	7	-5.32797E-001	-5.78526E-008	0.00000E+000	-5.32900E-001	9.76692E-004	5	..........a	-327.66
	36	7.4	-5.52751E-001	-6.16684E-008	0.00000E+000	-5.52900E-001	9.66392E-004	5	..........a	-327.66
	38	7.8	-5.72764E-001	-6.56101E-008	0.00000E+000	-5.72900E-001	9.70692E-004	5	..........a	-327.66
[...]
	1085	217.2	1.60061E-001	-2.25223E-008	0.00000E+000	1.60000E-001	1.00089E-003	5	..........a	-327.66
	1086	217.4	1.50078E-001	-2.28510E-008	0.00000E+000	1.50000E-001	9.97492E-004	5	..........a	-327.66
	1087	217.6	1.40122E-001	-2.30383E-008	0.00000E+000	1.40000E-001	9.92592E-004	5	..........a	-327.66
	1088	217.8	1.30081E-001	-2.30326E-008	0.00000E+000	1.30000E-001	9.77492E-004	5	..........a	-327.66
	1089	218	1.20070E-001	-2.29925E-008	0.00000E+000	1.20000E-001	9.86792E-004	5	..........a	-327.66
	1090	218.2	1.10110E-001	-2.29209E-008	0.00000E+000	1.10000E-001	9.86992E-004	5	..........a	-327.66
	1091	218.4	1.00129E-001	-2.28636E-008	0.00000E+000	1.00000E-001	9.85792E-004	5	..........a	-327.66
	1092	218.6	9.00883E-002	-2.28523E-008	0.00000E+000	9.00000E-002	9.77492E-004	5	..........a	-327.66
	1093	218.8	8.00530E-002	-2.29107E-008	0.00000E+000	8.00000E-002	9.85692E-004	5	..........a	-327.66
	1094	219	7.00437E-002	-2.30815E-008	0.00000E+000	7.00000E-002	9.85692E-004	5	..........a	-327.66
	1095	219.2	6.01134E-002	-2.33730E-008	0.00000E+000	6.00000E-002	9.62192E-004	5	..........a	-327.66
	1096	219.4	5.00731E-002	-2.37825E-008	0.00000E+000	5.00000E-002	9.83492E-004	5	..........a	-327.66
	1097	219.6	4.00562E-002	-2.42578E-008	0.00000E+000	4.00000E-002	9.94692E-004	5	..........a	-327.66
	1098	219.8	3.00946E-002	-2.48323E-008	0.00000E+000	3.00000E-002	9.90792E-004	5	..........a	-327.66
	1099	220	2.01668E-002	-2.54730E-008	0.00000E+000	2.00000E-002	9.73192E-004	5	..........a	-327.66
	1100	220.2	1.01137E-002	-2.61849E-008	0.00000E+000	1.00000E-002	9.94492E-004	5	..........a	-327.66
	1101	220.4	4.56917E-005	-2.69145E-008	0.00000E+000	7.45058E-009	9.99192E-004	5	..........a	-327.66
	1102	220.6	-9.91036E-003	-2.76643E-008	0.00000E+000	-1.00000E-002	1.00249E-003	5	..........a	-327.66
	1103	220.8	-1.99002E-002	-2.84202E-008	0.00000E+000	-2.00000E-002	9.73292E-004	5	..........a	-327.66
	1104	221	-2.99013E-002	-2.92888E-008	0.00000E+000	-3.00000E-002	9.83192E-004	5	..........a	-327.66
	1105	221.2	-3.98998E-002	-3.01877E-008	0.00000E+000	-4.00000E-002	9.86992E-004	5	..........a	-327.66
	1106	221.4	-4.98934E-002	-3.11155E-008	0.00000E+000	-5.00000E-002	9.86892E-004	5	..........a	-327.66
	1107	221.6	-5.99016E-002	-3.21233E-008	0.00000E+000	-6.00000E-002	9.69392E-004	5	..........a	-327.66
	1108	221.8	-6.99141E-002	-3.31034E-008	0.00000E+000	-7.00000E-002	9.83992E-004	5	..........a	-327.66
	1109	222	-7.99141E-002	-3.41473E-008	0.00000E+000	-8.00000E-002	9.95592E-004	5	..........a	-327.66
	1110	222.2	-8.98840E-002	-3.52056E-008	0.00000E+000	-9.00000E-002	9.89092E-004	5	..........a	-327.66
	1111	222.4	-9.98941E-002	-3.62689E-008	0.00000E+000	-1.00000E-001	9.78092E-004	5	..........a	-327.66
	1112	222.6	-1.09942E-001	-3.73012E-008	0.00000E+000	-1.10000E-001	9.78392E-004	5	..........a	-327.66
	1113	222.8	-1.19931E-001	-3.83963E-008	0.00000E+000	-1.20000E-001	9.80392E-004	5	..........a	-327.66
	1114	223	-1.29899E-001	-3.95478E-008	0.00000E+000	-1.30000E-001	9.69392E-004	5	..........a	-327.66
	1115	223.2	-1.39903E-001	-4.06431E-008	0.00000E+000	-1.40000E-001	9.70692E-004	5	..........a	-327.66
	1116	223.4	-1.49939E-001	-4.17609E-008	0.00000E+000	-1.50000E-001	9.75692E-004	5	..........a	-327.66
	1117	223.6	-1.59973E-001	-4.28423E-008	0.00000E+000	-1.60000E-001	9.76392E-004	5	..........a	-327.66
	1118	223.8	-1.69893E-001	-4.39737E-008	0.00000E+000	-1.70000E-001	9.79692E-004	5	..........a	-327.66
	1119	224	-1.79883E-001	-4.50701E-008	0.00000E+000	-1.80000E-001	9.75092E-004	5	..........a	-327.66
	1120	224.2	-1.89915E-001	-4.62575E-008	0.00000E+000	-1.90000E-001	9.60992E-004	5	..........a	-327.66