Folder: GamryParser/data/raw/batch_data (part 7)

File: 20240321_ZZ_GM0016_HL03_E13_CV50k.DTA
EXPLAIN
TAG	CV
TITLE	LABEL	Cyclic Voltammetry	Test &Identifier
DATE	LABEL	3/21/2024	Date
TIME	LABEL	19:28:02	Time
NOTES	NOTES	1	&Notes...

PSTAT	PSTAT	REF600P-43058	Potentiostat
VINIT	POTEN	0.00000E+000	T	Initial &E (V)
VLIMIT1	POTEN	-6.00000E-001	F	Scan Limit &1 (V)
VLIMIT2	POTEN	8.00000E-001	F	Scan Limit &2 (V)
VFINAL	POTEN	0.00000E+000	T	Final &E (V)
SCANRATE	QUANT	4.99999E+004	&Scan Rate (mV/s)
STEPSIZE	QUANT	1.00000E+001	St&ep Size (mV)
CYCLES	IQUANT	10	C&ycles (#)
IMODE	SELECTOR	1	I/E Range &Mode
IRANGE	QUANT	1.00000E-005	&Max Current (mA)
AREA	QUANT	1.00000E+000	Electrode &Area (cm^2)
ELECTRODETYPE	SELECTOR	0	Electrode Type
STRIPPING	TOGGLE	F	Used for Stripping
POLARITY	TOGGLE	F	Signal Polarity
CONDIT	TWOPARAM	F	1.50000E+001	0.00000E+000	Conditionin&g	Time(s)	E(V)
DELAY	TWOPARAM	T	1.00000E+001	0.00000E+000	Init. De&lay	Time(s)	Stab.(mV/s)
EQDELAY	QUANT	1.00000E+001	Equil. &Time (s)
IRCOMP	SELECTOR	0	IRCom&p
PFCOR	QUANT	5.00000E+001	PF Corr. (ohm)
SAMPLINGMODE	SELECTOR	1	Sampling &Mode
OCVCURVE	TABLE	39
	Pt	T	Vf	Vm	Ach	Over	Temp
	#	s	V vs. Ref.	V	V	bits	deg C
	0	0.258333	3.37575E-001	3.37575E-001	2.53489E-004	..........a	-327.66
	1	0.516667	3.37579E-001	3.37811E-001	2.43356E-004	..........a	-327.66
	2	0.775	3.37607E-001	3.38008E-001	2.58756E-004	..........a	-327.66
	3	1.03333	3.37684E-001	3.38311E-001	2.38622E-004	..........a	-327.66
	4	1.29167	3.37827E-001	3.38487E-001	2.54022E-004	..........a	-327.66
	5	1.55	3.38021E-001	3.38638E-001	2.45356E-004	..........a	-327.66
	6	1.80833	3.38236E-001	3.38849E-001	2.34889E-004	..........a	-327.66
	7	2.06667	3.38445E-001	3.39059E-001	2.39422E-004	..........a	-327.66
	8	2.325	3.38645E-001	3.39287E-001	2.48689E-004	..........a	-327.66
	9	2.58333	3.38845E-001	3.39479E-001	2.33489E-004	..........a	-327.66
	10	2.84167	3.39050E-001	3.39718E-001	2.24556E-004	..........a	-327.66
	11	3.1	3.39262E-001	3.39981E-001	2.43089E-004	..........a	-327.66
	12	3.35833	3.39481E-001	3.40119E-001	2.52422E-004	..........a	-327.66
	13	3.61667	3.39701E-001	3.40296E-001	2.49489E-004	..........a	-327.66
	14	3.875	3.39912E-001	3.40503E-001	2.46489E-004	..........a	-327.66
	15	4.13333	3.40109E-001	3.40694E-001	2.47022E-004	..........a	-327.66
	16	4.39167	3.40299E-001	3.40927E-001	2.47156E-004	..........a	-327.66
	17	4.65	3.40492E-001	3.41114E-001	2.57689E-004	..........a	-327.66
	18	4.90833	3.40693E-001	3.41347E-001	2.50022E-004	..........a	-327.66
	19	5.16667	3.40900E-001	3.41590E-001	2.49822E-004	..........a	-327.66
	20	5.425	3.41114E-001	3.41756E-001	2.58956E-004	..........a	-327.66
	21	5.68333	3.41329E-001	3.41899E-001	2.53222E-004	..........a	-327.66
	22	5.94167	3.41535E-001	3.42111E-001	2.47689E-004	..........a	-327.66
	23	6.2	3.41728E-001	3.42304E-001	2.53222E-004	..........a	-327.66
	24	6.45833	3.41913E-001	3.42525E-001	2.40622E-004	..........a	-327.66
	25	6.71667	3.42101E-001	3.42686E-001	2.45089E-004	..........a	-327.66
	26	6.975	3.42295E-001	3.42921E-001	2.46489E-004	..........a	-327.66
	27	7.23333	3.42493E-001	3.43150E-001	2.51756E-004	..........a	-327.66
	28	7.49167	3.42697E-001	3.43323E-001	2.55756E-004	..........a	-327.66
	29	7.75	3.42903E-001	3.43471E-001	2.45089E-004	..........a	-327.66
	30	8.00833	3.43104E-001	3.43689E-001	2.40956E-004	..........a	-327.66
	31	8.26667	3.43296E-001	3.43882E-001	2.59089E-004	..........a	-327.66
	32	8.525	3.43484E-001	3.44086E-001	2.39089E-004	..........a	-327.66
	33	8.78333	3.43674E-001	3.44256E-001	2.40489E-004	..........a	-327.66
	34	9.04167	3.43866E-001	3.44457E-001	2.51156E-004	..........a	-327.66
	35	9.3	3.44059E-001	3.44688E-001	2.50089E-004	..........a	-327.66
	36	9.5583	3.44255E-001	3.44877E-001	2.37489E-004	..........a	-327.66
	37	9.8167	3.44454E-001	3.45037E-001	2.60489E-004	..........a	-327.66
	38	10.075	3.44652E-001	3.45212E-001	2.43156E-004	..........a	-327.66
EOC	QUANT	0.3446525	Open Circuit (V)
PSTATMODEL	IQUANT	7	Pstat Model
PSTATSECTION	LABEL	REF600P-43058	Pstat Section
PSTATSERIALNO	LABEL	43058	Pstat Serial Number
CTRLMODE	IQUANT	1	Control Mode
ELECTROMETER	IQUANT	0	RE=0 or CS=1
IESTAB	IQUANT	2	I/E Stability
CASPEED	IQUANT	4	Control Amp Speed
CONVENTION	IQUANT	1	Current Convention
ICHRANGE	IQUANT	2	Ich Range
ICHRANGEMODE	TOGGLE	F	Ich Auto Range
ICHOFFSETENABLE	TOGGLE	F	Ich Offset Enable
ICHOFFSET	QUANT	0	Ich Offset (V)
ICHFILTER	IQUANT	1	Ich Filter
VCHRANGE	IQUANT	2	Vch Range
VCHRANGEMODE	TOGGLE	F	Vch Auto Range
VCHOFFSETENABLE	TOGGLE	F	Vch Offset Enable
VCHOFFSET	QUANT	0	Vch Offset (V)
VCHFILTER	IQUANT	1	Vch Filter
ACHRANGE	IQUANT	2	Ach Range
ACHOFFSETENABLE	TOGGLE	F	Ach Offset Enable
ACHOFFSET	QUANT	0	Ach Offset (V)
ACHFILTER	IQUANT	1	Ach Filter
IERANGELOWERLIMIT	IQUANT	1	I/E Range Lower Limit
IERANGEMODE	TOGGLE	F	I/E AutoRange
IERANGE	IQUANT	4	I/E Range
POSFEEDENABLE	TOGGLE	F	Positive Feedback IR Comp
POSFEEDRESISTANCE	QUANT	0	Positive Feedback Resistance (ohm)
ACHSELECT	IQUANT	4	Ach Select
SENSECABLEID	IQUANT	7	Sense Cable ID
PWRCABLEID	IQUANT	7	Power Cable ID
DCCALDATE	LABEL	12/18/2023	DC Calibration Date
ACCALDATE	LABEL	12/18/2023	AC Calibration Date
THERMOSELECT	IQUANT	1	Thermo Select
FRAMEWORKVERSION	LABEL	7.8.4	Framework Version
INSTRUMENTVERSION	LABEL	4.42	Instrument Version
CURVE1	TABLE
	Pt	T	Vf	Im	Vu	Sig	Ach	IERange	Over	Temp
	#	s	V vs. Ref.	A	V	V	V	#	bits	deg C
	0	0.0002	3.44670E-001	3.17889E-011	0.00000E+000	3.44650E-001	8.00223E-005	4	..........a	-327.66
	3	0.0008	3.14670E-001	-1.08217E-010	0.00000E+000	3.14650E-001	8.00223E-005	4	..........a	-327.66
	6	0.0014	2.84570E-001	-2.62222E-010	0.00000E+000	2.84650E-001	8.00223E-005	4	..........a	-327.66
	9	0.002	2.54770E-001	-4.30229E-010	0.00000E+000	2.54650E-001	8.00223E-005	4	..........a	-327.66
	12	0.0026	2.24570E-001	-6.14236E-010	0.00000E+000	2.24650E-001	8.00223E-005	4	..........a	-327.66
	15	0.0032	1.94870E-001	-8.20244E-010	0.00000E+000	1.94650E-001	8.00223E-005	4	..........a	-327.66
	18	0.0038	1.64670E-001	-1.03825E-009	0.00000E+000	1.64650E-001	8.00223E-005	4	..........a	-327.66
	21	0.0044	1.34570E-001	-1.28026E-009	0.00000E+000	1.34650E-001	8.00223E-005	4	..........a	-327.66
	24	0.005	1.04770E-001	-1.54227E-009	0.00000E+000	1.04650E-001	8.00223E-005	4	..........a	-327.66
	27	0.0056	7.47695E-002	-1.83028E-009	0.00000E+000	7.46500E-002	8.00223E-005	4	..........a	-327.66
	30	0.0062	4.46695E-002	-2.14629E-009	0.00000E+000	4.46500E-002	8.00223E-005	4	..........a	-327.66
	33	0.0068	1.44695E-002	-2.48531E-009	0.00000E+000	1.46500E-002	8.00223E-005	4	..........a	-327.66
	36	0.0074	-1.53305E-002	-2.85032E-009	0.00000E+000	-1.53500E-002	8.00223E-005	4	..........a	-327.66
	39	0.008	-4.52305E-002	-3.23734E-009	0.00000E+000	-4.53500E-002	8.00223E-005	4	..........a	-327.66
	42	0.0086	-7.52305E-002	-3.64735E-009	0.00000E+000	-7.53500E-002	8.00223E-005	4	..........a	-327.66
	45	0.0092	-1.05330E-001	-4.08637E-009	0.00000E+000	-1.05350E-001	8.00223E-005	4	..........a	-327.66
	48	0.0098	-1.35330E-001	-4.54839E-009	0.00000E+000	-1.35350E-001	8.00223E-005	4	..........a	-327.66
	51	0.0104	-1.65230E-001	-5.02041E-009	0.00000E+000	-1.65350E-001	8.00223E-005	4	..........a	-327.66
	54	0.011	-1.95330E-001	-5.50342E-009	0.00000E+000	-1.95350E-001	8.00223E-005	4	..........a	-327.66
	57	0.0116	-2.25230E-001	-6.01044E-009	0.00000E+000	-2.25350E-001	8.00223E-005	4	..........a	-327.66
[...]
	2763	0.5528	6.99769E-001	8.69612E-009	0.00000E+000	7.00000E-001	-3.19978E-004	4	..........a	-327.66
	2764	0.553	6.89770E-001	8.65712E-009	0.00000E+000	6.90000E-001	8.00223E-005	4	..........a	-327.66
	2765	0.5532	6.79669E-001	8.62012E-009	0.00000E+000	6.80000E-001	8.00223E-005	4	..........a	-327.66
	2766	0.5534	6.69869E-001	8.56812E-009	0.00000E+000	6.70000E-001	-2.19978E-004	4	..........a	-327.66
	2767	0.5536	6.59920E-001	8.51311E-009	0.00000E+000	6.60000E-001	8.00223E-005	4	..........a	-327.66
	2768	0.5538	6.49920E-001	8.46211E-009	0.00000E+000	6.50000E-001	8.00223E-005	4	..........a	-327.66
	2769	0.554	6.39870E-001	8.39611E-009	0.00000E+000	6.40000E-001	-3.19978E-004	4	..........a	-327.66
	2770	0.5542	6.29869E-001	8.33611E-009	0.00000E+000	6.30000E-001	8.00223E-005	4	..........a	-327.66
	2771	0.5544	6.19969E-001	8.26611E-009	0.00000E+000	6.20000E-001	8.00223E-005	4	..........a	-327.66
	2772	0.5546	6.09769E-001	8.19210E-009	0.00000E+000	6.10000E-001	8.00223E-005	4	..........a	-327.66
	2773	0.5548	5.99970E-001	8.12410E-009	0.00000E+000	6.00000E-001	8.00223E-005	4	..........a	-327.66
	2774	0.555	5.90069E-001	8.05310E-009	0.00000E+000	5.90000E-001	8.00223E-005	4	..........a	-327.66
	2775	0.5552	5.79769E-001	7.97309E-009	0.00000E+000	5.80000E-001	8.00223E-005	4	..........a	-327.66
	2776	0.5554	5.69969E-001	7.89809E-009	0.00000E+000	5.70000E-001	8.00223E-005	4	..........a	-327.66
	2777	0.5556	5.59969E-001	7.81809E-009	0.00000E+000	5.60000E-001	8.00223E-005	4	..........a	-327.66
	2778	0.5558	5.50020E-001	7.73208E-009	0.00000E+000	5.50000E-001	8.00223E-005	4	..........a	-327.66
	2779	0.556	5.40069E-001	7.64408E-009	0.00000E+000	5.40000E-001	8.00223E-005	4	..........a	-327.66
	2780	0.5562	5.30069E-001	7.56008E-009	0.00000E+000	5.30000E-001	8.00223E-005	4	..........a	-327.66
	2781	0.5564	5.19870E-001	7.46907E-009	0.00000E+000	5.20000E-001	8.00223E-005	4	..........a	-327.66
	2782	0.5566	5.09969E-001	7.37607E-009	0.00000E+000	5.10000E-001	8.00223E-005	4	..........a	-327.66
	2783	0.5568	4.99870E-001	7.28807E-009	0.00000E+000	5.00000E-001	8.00223E-005	4	..........a	-327.66
	2784	0.557	4.90070E-001	7.19306E-009	0.00000E+000	4.90000E-001	8.00223E-005	4	..........a	-327.66
	2785	0.5572	4.79870E-001	7.09806E-009	0.00000E+000	4.80000E-001	8.00223E-005	4	..........a	-327.66
	2786	0.5574	4.69870E-001	6.99506E-009	0.00000E+000	4.70000E-001	8.00223E-005	4	..........a	-327.66
	2787	0.5576	4.60070E-001	6.89705E-009	0.00000E+000	4.60000E-001	-3.19978E-004	4	..........a	-327.66
	2788	0.5578	4.49670E-001	6.79505E-009	0.00000E+000	4.50000E-001	8.00223E-005	4	..........a	-327.66
	2789	0.558	4.39870E-001	6.69204E-009	0.00000E+000	4.40000E-001	8.00223E-005	4	..........a	-327.66
	2790	0.5582	4.29970E-001	6.58804E-009	0.00000E+000	4.30000E-001	-4.19978E-004	4	..........a	-327.66
	2791	0.5584	4.20070E-001	6.48104E-009	0.00000E+000	4.20000E-001	8.00223E-005	4	..........a	-327.66
	2792	0.5586	4.09870E-001	6.36603E-009	0.00000E+000	4.10000E-001	8.00223E-005	4	..........a	-327.66
	2793	0.5588	3.99970E-001	6.26203E-009	0.00000E+000	4.00000E-001	8.00223E-005	4	..........a	-327.66
	2794	0.559	3.90070E-001	6.14902E-009	0.00000E+000	3.90000E-001	-3.19978E-004	4	..........a	-327.66
	2795	0.5592	3.80170E-001	6.03602E-009	0.00000E+000	3.80000E-001	8.00223E-005	4	..........a	-327.66
	2796	0.5594	3.69870E-001	5.91601E-009	0.00000E+000	3.70000E-001	8.00223E-005	4	..........a	-327.66
	2797	0.5596	3.59770E-001	5.79201E-009	0.00000E+000	3.60000E-001	8.00223E-005	4	..........a	-327.66
	2798	0.5598	3.50070E-001	5.67401E-009	0.00000E+000	3.50000E-001	8.00223E-005	4	..........a	-327.66

File: 20240321_ZZC_GM0016_HL03_E14_CV50.DTA
EXPLAIN
TAG	CV
TITLE	LABEL	Cyclic Voltammetry	Test &Identifier
DATE	LABEL	3/21/2024	Date
TIME	LABEL	19:37:25	Time
NOTES	NOTES	1	&Notes...

PSTAT	PSTAT	REF600P-43058	Potentiostat
VINIT	POTEN	0.00000E+000	T	Initial &E (V)
VLIMIT1	POTEN	-6.00000E-001	F	Scan Limit &1 (V)
VLIMIT2	POTEN	8.00000E-001	F	Scan Limit &2 (V)
VFINAL	POTEN	0.00000E+000	T	Final &E (V)
SCANRATE	QUANT	4.99999E+001	&Scan Rate (mV/s)
STEPSIZE	QUANT	1.00000E+001	St&ep Size (mV)
CYCLES	IQUANT	4	C&ycles (#)
IMODE	SELECTOR	1	I/E Range &Mode
IRANGE	QUANT	1.00000E-005	&Max Current (mA)
AREA	QUANT	1.00000E+000	Electrode &Area (cm^2)
ELECTRODETYPE	SELECTOR	0	Electrode Type
STRIPPING	TOGGLE	F	Used for Stripping
POLARITY	TOGGLE	F	Signal Polarity
CONDIT	TWOPARAM	F	1.50000E+001	0.00000E+000	Conditionin&g	Time(s)	E(V)
DELAY	TWOPARAM	T	1.00000E+001	0.00000E+000	Init. De&lay	Time(s)	Stab.(mV/s)
EQDELAY	QUANT	1.00000E+001	Equil. &Time (s)
IRCOMP	SELECTOR	0	IRCom&p
PFCOR	QUANT	5.00000E+001	PF Corr. (ohm)
SAMPLINGMODE	SELECTOR	1	Sampling &Mode
OCVCURVE	TABLE	39
	Pt	T	Vf	Vm	Ach	Over	Temp
	#	s	V vs. Ref.	V	V	bits	deg C
	0	0.258333	3.49400E-001	3.49400E-001	2.36889E-004	..........a	-327.66
	1	0.516667	3.49403E-001	3.49553E-001	2.33756E-004	..........a	-327.66
	2	0.775	3.49419E-001	3.49578E-001	2.56022E-004	..........a	-327.66
	3	1.03333	3.49457E-001	3.49662E-001	2.43022E-004	..........a	-327.66
	4	1.29167	3.49516E-001	3.49843E-001	2.29489E-004	..........a	-327.66
	5	1.55	3.49598E-001	3.50053E-001	2.27556E-004	..........a	-327.66
	6	1.80833	3.49712E-001	3.50354E-001	2.40422E-004	..........a	-327.66
	7	2.06667	3.49871E-001	3.50566E-001	2.38356E-004	..........a	-327.66
	8	2.325	3.50073E-001	3.50767E-001	2.39089E-004	..........a	-327.66
	9	2.58333	3.50303E-001	3.51175E-001	2.27756E-004	..........a	-327.66
	10	2.84167	3.50549E-001	3.51249E-001	2.48889E-004	..........a	-327.66
	11	3.1	3.50799E-001	3.51412E-001	2.25622E-004	..........a	-327.66
	12	3.35833	3.51032E-001	3.51612E-001	2.45622E-004	..........a	-327.66
	13	3.61667	3.51239E-001	3.51892E-001	2.44689E-004	..........a	-327.66
	14	3.875	3.51434E-001	3.52127E-001	2.28289E-004	..........a	-327.66
	15	4.13333	3.51640E-001	3.52355E-001	2.33756E-004	..........a	-327.66
	16	4.39167	3.51868E-001	3.52750E-001	2.31489E-004	..........a	-327.66
	17	4.65	3.52115E-001	3.52831E-001	2.48822E-004	..........a	-327.66
	18	4.90833	3.52370E-001	3.52986E-001	2.22222E-004	..........a	-327.66
	19	5.16667	3.52608E-001	3.53159E-001	2.40756E-004	..........a	-327.66
	20	5.425	3.52812E-001	3.53420E-001	2.39089E-004	..........a	-327.66
	21	5.68333	3.52999E-001	3.53640E-001	2.40889E-004	..........a	-327.66
	22	5.94167	3.53190E-001	3.53836E-001	2.27289E-004	..........a	-327.66
	23	6.2	3.53397E-001	3.54121E-001	2.26489E-004	..........a	-327.66
	24	6.45833	3.53618E-001	3.54400E-001	2.54956E-004	..........a	-327.66
	25	6.71667	3.53851E-001	3.54456E-001	2.45022E-004	..........a	-327.66
	26	6.975	3.54082E-001	3.54626E-001	2.11822E-004	..........a	-327.66
	27	7.23333	3.54289E-001	3.54838E-001	2.16956E-004	..........a	-327.66
	28	7.49167	3.54473E-001	3.55084E-001	2.21089E-004	..........a	-327.66
	29	7.75	3.54653E-001	3.55287E-001	2.43356E-004	..........a	-327.66
	30	8.00833	3.54846E-001	3.55479E-001	2.29022E-004	..........a	-327.66
	31	8.26667	3.55054E-001	3.55826E-001	2.29956E-004	..........a	-327.66
	32	8.525	3.55276E-001	3.55997E-001	2.13489E-004	..........a	-327.66
	33	8.78333	3.55508E-001	3.56083E-001	2.46756E-004	..........a	-327.66
	34	9.04167	3.55731E-001	3.56253E-001	2.38156E-004	..........a	-327.66
	35	9.3	3.55928E-001	3.56449E-001	2.42422E-004	..........a	-327.66
	36	9.5583	3.56101E-001	3.56683E-001	2.17422E-004	..........a	-327.66
	37	9.8167	3.56272E-001	3.56886E-001	2.27756E-004	..........a	-327.66
	38	10.075	3.56457E-001	3.57056E-001	2.30422E-004	..........a	-327.66
EOC	QUANT	0.3564574	Open Circuit (V)
PSTATMODEL	IQUANT	7	Pstat Model
PSTATSECTION	LABEL	REF600P-43058	Pstat Section
PSTATSERIALNO	LABEL	43058	Pstat Serial Number
CTRLMODE	IQUANT	1	Control Mode
ELECTROMETER	IQUANT	0	RE=0 or CS=1
IESTAB	IQUANT	2	I/E Stability
CASPEED	IQUANT	4	Control Amp Speed
CONVENTION	IQUANT	1	Current Convention
ICHRANGE	IQUANT	2	Ich Range
ICHRANGEMODE	TOGGLE	F	Ich Auto Range
ICHOFFSETENABLE	TOGGLE	F	Ich Offset Enable
ICHOFFSET	QUANT	0	Ich Offset (V)
ICHFILTER	IQUANT	2	Ich Filter
VCHRANGE	IQUANT	2	Vch Range
VCHRANGEMODE	TOGGLE	F	Vch Auto Range
VCHOFFSETENABLE	TOGGLE	F	Vch Offset Enable
VCHOFFSET	QUANT	0	Vch Offset (V)
VCHFILTER	IQUANT	2	Vch Filter
ACHRANGE	IQUANT	2	Ach Range
ACHOFFSETENABLE	TOGGLE	F	Ach Offset Enable
ACHOFFSET	QUANT	0	Ach Offset (V)
ACHFILTER	IQUANT	1	Ach Filter
IERANGELOWERLIMIT	IQUANT	1	I/E Range Lower Limit
IERANGEMODE	TOGGLE	F	I/E AutoRange
IERANGE	IQUANT	4	I/E Range
POSFEEDENABLE	TOGGLE	F	Positive Feedback IR Comp
POSFEEDRESISTANCE	QUANT	0	Positive Feedback Resistance (ohm)
ACHSELECT	IQUANT	4	Ach Select
SENSECABLEID	IQUANT	7	Sense Cable ID
PWRCABLEID	IQUANT	7	Power Cable ID
DCCALDATE	LABEL	12/18/2023	DC Calibration Date
ACCALDATE	LABEL	12/18/2023	AC Calibration Date
THERMOSELECT	IQUANT	1	Thermo Select
FRAMEWORKVERSION	LABEL	7.8.4	Framework Version
INSTRUMENTVERSION	LABEL	4.42	Instrument Version
CURVE1	TABLE
	Pt	T	Vf	Im	Vu	Sig	Ach	IERange	Over	Temp
	#	s	V vs. Ref.	A	V	V	V	#	bits	deg C
	0	0.2	3.56356E-001	1.97796E-011	0.00000E+000	3.56450E-001	1.00652E-003	4	..........a	-327.66
	3	0.8	3.26412E-001	-3.60996E-011	0.00000E+000	3.26450E-001	1.01732E-003	4	..........a	-327.66
	6	1.4	2.96316E-001	-4.55969E-011	0.00000E+000	2.96450E-001	1.02752E-003	4	..........a	-327.66
	9	2	2.66470E-001	-5.26262E-011	0.00000E+000	2.66450E-001	1.03192E-003	4	..........a	-327.66
	12	2.6	2.36422E-001	-5.80424E-011	0.00000E+000	2.36450E-001	1.05232E-003	4	..........a	-327.66
	15	3.2	2.06370E-001	-6.63157E-011	0.00000E+000	2.06450E-001	9.96322E-004	4	..........a	-327.66
	18	3.8	1.76501E-001	-6.93479E-011	0.00000E+000	1.76450E-001	1.02102E-003	4	..........a	-327.66
	21	4.4	1.46445E-001	-7.24080E-011	0.00000E+000	1.46450E-001	9.94122E-004	4	..........a	-327.66
	24	5	1.16398E-001	-7.60361E-011	0.00000E+000	1.16450E-001	1.01692E-003	4	..........a	-327.66
	27	5.6	8.64828E-002	-8.09893E-011	0.00000E+000	8.64500E-002	1.03782E-003	4	..........a	-327.66
	30	6.2	5.64770E-002	-8.33644E-011	0.00000E+000	5.64500E-002	1.02472E-003	4	..........a	-327.66
	33	6.8	2.64512E-002	-8.60765E-011	0.00000E+000	2.64500E-002	1.05202E-003	4	..........a	-327.66
	36	7.4	-3.57696E-003	-8.99286E-011	0.00000E+000	-3.54999E-003	1.02782E-003	4	..........a	-327.66
	39	8	-3.35926E-002	-9.72199E-011	0.00000E+000	-3.35500E-002	1.02412E-003	4	..........a	-327.66
	42	8.6	-6.34988E-002	-1.00962E-010	0.00000E+000	-6.35500E-002	1.02602E-003	4	..........a	-327.66
	45	9.2	-9.35004E-002	-1.10539E-010	0.00000E+000	-9.35500E-002	1.01682E-003	4	..........a	-327.66
	48	9.8	-1.23568E-001	-1.20742E-010	0.00000E+000	-1.23550E-001	1.02732E-003	4	..........a	-327.66
	51	10.4	-1.53599E-001	-1.31508E-010	0.00000E+000	-1.53550E-001	1.01692E-003	4	..........a	-327.66
	54	11	-1.83509E-001	-1.47222E-010	0.00000E+000	-1.83550E-001	9.93922E-004	4	..........a	-327.66
	57	11.6	-2.13546E-001	-1.64085E-010	0.00000E+000	-2.13550E-001	1.03562E-003	4	..........a	-327.66
	60	12.2	-2.43523E-001	-1.83674E-010	0.00000E+000	-2.43550E-001	1.03852E-003	4	..........a	-327.66
[...]
	1085	217.2	7.09907E-001	2.75909E-011	0.00000E+000	7.10000E-001	1.00282E-003	4	..........a	-327.66
	1086	217.4	6.99972E-001	1.41253E-011	0.00000E+000	7.00000E-001	1.03962E-003	4	..........a	-327.66
	1087	217.6	6.89846E-001	2.43789E-012	0.00000E+000	6.90000E-001	1.01172E-003	4	..........a	-327.66
	1088	217.8	6.79815E-001	-8.76954E-012	0.00000E+000	6.80000E-001	1.00802E-003	4	..........a	-327.66
	1089	218	6.69896E-001	-1.97000E-011	0.00000E+000	6.70000E-001	1.03182E-003	4	..........a	-327.66
	1090	218.2	6.59987E-001	-2.92113E-011	0.00000E+000	6.60000E-001	1.02342E-003	4	..........a	-327.66
	1091	218.4	6.49916E-001	-3.66576E-011	0.00000E+000	6.50000E-001	9.97522E-004	4	..........a	-327.66
	1092	218.6	6.39908E-001	-4.14448E-011	0.00000E+000	6.40000E-001	1.04332E-003	4	..........a	-327.66
	1093	218.8	6.29875E-001	-4.77190E-011	0.00000E+000	6.30000E-001	1.01342E-003	4	..........a	-327.66
	1094	219	6.19988E-001	-5.26642E-011	0.00000E+000	6.20000E-001	1.00882E-003	4	..........a	-327.66
	1095	219.2	6.09942E-001	-5.80394E-011	0.00000E+000	6.10000E-001	1.02622E-003	4	..........a	-327.66
	1096	219.4	5.99932E-001	-6.20376E-011	0.00000E+000	6.00000E-001	9.96522E-004	4	..........a	-327.66
	1097	219.6	5.89937E-001	-6.80818E-011	0.00000E+000	5.90000E-001	9.97322E-004	4	..........a	-327.66
	1098	219.8	5.80011E-001	-7.06099E-011	0.00000E+000	5.80000E-001	1.01082E-003	4	..........a	-327.66
	1099	220	5.69916E-001	-7.54181E-011	0.00000E+000	5.70000E-001	1.01252E-003	4	..........a	-327.66
	1100	220.2	5.59921E-001	-7.83722E-011	0.00000E+000	5.60000E-001	1.01892E-003	4	..........a	-327.66
	1101	220.4	5.49923E-001	-8.17213E-011	0.00000E+000	5.50000E-001	1.03542E-003	4	..........a	-327.66
	1102	220.6	5.40002E-001	-8.46095E-011	0.00000E+000	5.40000E-001	1.03682E-003	4	..........a	-327.66
	1103	220.8	5.29972E-001	-8.70375E-011	0.00000E+000	5.30000E-001	1.01722E-003	4	..........a	-327.66
	1104	221	5.19939E-001	-9.01847E-011	0.00000E+000	5.20000E-001	1.00732E-003	4	..........a	-327.66
	1105	221.2	5.09926E-001	-9.24407E-011	0.00000E+000	5.10000E-001	1.05162E-003	4	..........a	-327.66
	1106	221.4	5.00037E-001	-9.38138E-011	0.00000E+000	5.00000E-001	1.01062E-003	4	..........a	-327.66
	1107	221.6	4.89944E-001	-9.89230E-011	0.00000E+000	4.90000E-001	1.00502E-003	4	..........a	-327.66
	1108	221.8	4.79952E-001	-1.01280E-010	0.00000E+000	4.80000E-001	1.03212E-003	4	..........a	-327.66
	1109	222	4.69955E-001	-1.02647E-010	0.00000E+000	4.70000E-001	1.01412E-003	4	..........a	-327.66
	1110	222.2	4.60008E-001	-1.05601E-010	0.00000E+000	4.60000E-001	1.04742E-003	4	..........a	-327.66
	1111	222.4	4.49910E-001	-1.07140E-010	0.00000E+000	4.50000E-001	9.76822E-004	4	..........a	-327.66
	1112	222.6	4.39957E-001	-1.09961E-010	0.00000E+000	4.40000E-001	1.03762E-003	4	..........a	-327.66
	1113	222.8	4.29929E-001	-1.12449E-010	0.00000E+000	4.30000E-001	1.04922E-003	4	..........a	-327.66
	1114	223	4.20009E-001	-1.14180E-010	0.00000E+000	4.20000E-001	1.02512E-003	4	..........a	-327.66
	1115	223.2	4.09929E-001	-1.16058E-010	0.00000E+000	4.10000E-001	9.93522E-004	4	..........a	-327.66
	1116	223.4	4.00013E-001	-1.17957E-010	0.00000E+000	4.00000E-001	1.01802E-003	4	..........a	-327.66
	1117	223.6	3.89957E-001	-1.20636E-010	0.00000E+000	3.90000E-001	9.90022E-004	4	..........a	-327.66
	1118	223.8	3.80007E-001	-1.23172E-010	0.00000E+000	3.80000E-001	1.00372E-003	4	..........a	-327.66
	1119	224	3.69971E-001	-1.24245E-010	0.00000E+000	3.70000E-001	1.00122E-003	4	..........a	-327.66
	1120	224.2	3.59918E-001	-1.27186E-010	0.00000E+000	3.60000E-001	1.00112E-003	4	..........a	-327.66