Folder: GamryParser/data/raw/batch_data (part 2)

File: 20240321_S_GM0016_HL03_E05_CV50.DTA
EXPLAIN
TAG	CV
TITLE	LABEL	Cyclic Voltammetry	Test &Identifier
DATE	LABEL	3/21/2024	Date
TIME	LABEL	17:25:43	Time
NOTES	NOTES	1	&Notes...

PSTAT	PSTAT	REF600P-43058	Potentiostat
VINIT	POTEN	0.00000E+000	T	Initial &E (V)
VLIMIT1	POTEN	-6.00000E-001	F	Scan Limit &1 (V)
VLIMIT2	POTEN	8.00000E-001	F	Scan Limit &2 (V)
VFINAL	POTEN	0.00000E+000	T	Final &E (V)
SCANRATE	QUANT	4.99999E+001	&Scan Rate (mV/s)
STEPSIZE	QUANT	1.00000E+001	St&ep Size (mV)
CYCLES	IQUANT	4	C&ycles (#)
IMODE	SELECTOR	1	I/E Range &Mode
IRANGE	QUANT	1.00000E-005	&Max Current (mA)
AREA	QUANT	1.00000E+000	Electrode &Area (cm^2)
ELECTRODETYPE	SELECTOR	0	Electrode Type
STRIPPING	TOGGLE	F	Used for Stripping
POLARITY	TOGGLE	F	Signal Polarity
CONDIT	TWOPARAM	F	1.50000E+001	0.00000E+000	Conditionin&g	Time(s)	E(V)
DELAY	TWOPARAM	T	1.00000E+001	0.00000E+000	Init. De&lay	Time(s)	Stab.(mV/s)
EQDELAY	QUANT	1.00000E+001	Equil. &Time (s)
IRCOMP	SELECTOR	0	IRCom&p
PFCOR	QUANT	5.00000E+001	PF Corr. (ohm)
SAMPLINGMODE	SELECTOR	1	Sampling &Mode
OCVCURVE	TABLE	39
	Pt	T	Vf	Vm	Ach	Over	Temp
	#	s	V vs. Ref.	V	V	bits	deg C
	0	0.258333	2.20727E-001	2.20727E-001	2.30422E-004	..........a	-327.66
	1	0.516667	2.20730E-001	2.20896E-001	2.25622E-004	..........a	-327.66
	2	0.775	2.20753E-001	2.21201E-001	2.25422E-004	..........a	-327.66
	3	1.03333	2.20827E-001	2.21560E-001	2.31289E-004	..........a	-327.66
	4	1.29167	2.20985E-001	2.21988E-001	2.36422E-004	..........a	-327.66
	5	1.55	2.21238E-001	2.22445E-001	2.37156E-004	..........a	-327.66
	6	1.80833	2.21575E-001	2.22915E-001	2.29622E-004	..........a	-327.66
	7	2.06667	2.21975E-001	2.23399E-001	2.23489E-004	..........a	-327.66
	8	2.325	2.22417E-001	2.23900E-001	2.27356E-004	..........a	-327.66
	9	2.58333	2.22885E-001	2.24403E-001	2.27689E-004	..........a	-327.66
	10	2.84167	2.23369E-001	2.24903E-001	2.28289E-004	..........a	-327.66
	11	3.1	2.23863E-001	2.25403E-001	2.24622E-004	..........a	-327.66
	12	3.35833	2.24362E-001	2.25911E-001	2.24689E-004	..........a	-327.66
	13	3.61667	2.24864E-001	2.26421E-001	2.28622E-004	..........a	-327.66
	14	3.875	2.25368E-001	2.26927E-001	2.39289E-004	..........a	-327.66
	15	4.13333	2.25873E-001	2.27433E-001	2.37756E-004	..........a	-327.66
	16	4.39167	2.26380E-001	2.27939E-001	2.36956E-004	..........a	-327.66
	17	4.65	2.26887E-001	2.28448E-001	2.37156E-004	..........a	-327.66
	18	4.90833	2.27394E-001	2.28952E-001	2.28422E-004	..........a	-327.66
	19	5.16667	2.27901E-001	2.29460E-001	2.39289E-004	..........a	-327.66
	20	5.425	2.28407E-001	2.29963E-001	2.43422E-004	..........a	-327.66
	21	5.68333	2.28913E-001	2.30462E-001	2.32822E-004	..........a	-327.66
	22	5.94167	2.29418E-001	2.30967E-001	2.38222E-004	..........a	-327.66
	23	6.2	2.29922E-001	2.31469E-001	2.33689E-004	..........a	-327.66
	24	6.45833	2.30425E-001	2.31966E-001	2.44222E-004	..........a	-327.66
	25	6.71667	2.30927E-001	2.32457E-001	2.36356E-004	..........a	-327.66
	26	6.975	2.31427E-001	2.32950E-001	2.33956E-004	..........a	-327.66
	27	7.23333	2.31924E-001	2.33450E-001	2.28756E-004	..........a	-327.66
	28	7.49167	2.32420E-001	2.33950E-001	2.30822E-004	..........a	-327.66
	29	7.75	2.32915E-001	2.34448E-001	2.35356E-004	..........a	-327.66
	30	8.00833	2.33412E-001	2.34926E-001	2.35756E-004	..........a	-327.66
	31	8.26667	2.33908E-001	2.35421E-001	2.35022E-004	..........a	-327.66
	32	8.525	2.34402E-001	2.35916E-001	2.29222E-004	..........a	-327.66
	33	8.78333	2.34893E-001	2.36392E-001	2.27822E-004	..........a	-327.66
	34	9.04167	2.35383E-001	2.36875E-001	2.27956E-004	..........a	-327.66
	35	9.3	2.35870E-001	2.37358E-001	2.27822E-004	..........a	-327.66
	36	9.5583	2.36355E-001	2.37851E-001	2.32422E-004	..........a	-327.66
	37	9.8167	2.36839E-001	2.38329E-001	2.23556E-004	..........a	-327.66
	38	10.075	2.37324E-001	2.38807E-001	2.25756E-004	..........a	-327.66
EOC	QUANT	0.2373237	Open Circuit (V)
PSTATMODEL	IQUANT	7	Pstat Model
PSTATSECTION	LABEL	REF600P-43058	Pstat Section
PSTATSERIALNO	LABEL	43058	Pstat Serial Number
CTRLMODE	IQUANT	1	Control Mode
ELECTROMETER	IQUANT	0	RE=0 or CS=1
IESTAB	IQUANT	2	I/E Stability
CASPEED	IQUANT	4	Control Amp Speed
CONVENTION	IQUANT	1	Current Convention
ICHRANGE	IQUANT	2	Ich Range
ICHRANGEMODE	TOGGLE	F	Ich Auto Range
ICHOFFSETENABLE	TOGGLE	F	Ich Offset Enable
ICHOFFSET	QUANT	0	Ich Offset (V)
ICHFILTER	IQUANT	2	Ich Filter
VCHRANGE	IQUANT	2	Vch Range
VCHRANGEMODE	TOGGLE	F	Vch Auto Range
VCHOFFSETENABLE	TOGGLE	F	Vch Offset Enable
VCHOFFSET	QUANT	0	Vch Offset (V)
VCHFILTER	IQUANT	2	Vch Filter
ACHRANGE	IQUANT	2	Ach Range
ACHOFFSETENABLE	TOGGLE	F	Ach Offset Enable
ACHOFFSET	QUANT	0	Ach Offset (V)
ACHFILTER	IQUANT	1	Ach Filter
IERANGELOWERLIMIT	IQUANT	1	I/E Range Lower Limit
IERANGEMODE	TOGGLE	F	I/E AutoRange
IERANGE	IQUANT	4	I/E Range
POSFEEDENABLE	TOGGLE	F	Positive Feedback IR Comp
POSFEEDRESISTANCE	QUANT	0	Positive Feedback Resistance (ohm)
ACHSELECT	IQUANT	4	Ach Select
SENSECABLEID	IQUANT	7	Sense Cable ID
PWRCABLEID	IQUANT	7	Power Cable ID
DCCALDATE	LABEL	12/18/2023	DC Calibration Date
ACCALDATE	LABEL	12/18/2023	AC Calibration Date
THERMOSELECT	IQUANT	1	Thermo Select
FRAMEWORKVERSION	LABEL	7.8.4	Framework Version
INSTRUMENTVERSION	LABEL	4.42	Instrument Version
CURVE1	TABLE
	Pt	T	Vf	Im	Vu	Sig	Ach	IERange	Over	Temp
	#	s	V vs. Ref.	A	V	V	V	#	bits	deg C
	0	0.2	2.37327E-001	1.54494E-011	0.00000E+000	2.37300E-001	9.70422E-004	4	..........a	-327.66
	3	0.8	2.07277E-001	-1.52298E-011	0.00000E+000	2.07300E-001	9.79122E-004	4	..........a	-327.66
	6	1.4	1.77297E-001	-2.96483E-011	0.00000E+000	1.77300E-001	9.79522E-004	4	..........a	-327.66
	9	2	1.47372E-001	-3.95617E-011	0.00000E+000	1.47300E-001	9.76022E-004	4	..........a	-327.66
	12	2.6	1.17380E-001	-4.89721E-011	0.00000E+000	1.17300E-001	9.65822E-004	4	..........a	-327.66
	15	3.2	8.73641E-002	-5.80664E-011	0.00000E+000	8.73000E-002	9.57222E-004	4	..........a	-327.66
	18	3.8	5.73127E-002	-6.56397E-011	0.00000E+000	5.73000E-002	9.79522E-004	4	..........a	-327.66
	21	4.4	2.73461E-002	-7.44281E-011	0.00000E+000	2.73000E-002	9.78922E-004	4	..........a	-327.66
	24	5	-2.61811E-003	-8.37894E-011	0.00000E+000	-2.69999E-003	9.73222E-004	4	..........a	-327.66
	27	5.6	-3.27308E-002	-9.38798E-011	0.00000E+000	-3.27000E-002	9.89022E-004	4	..........a	-327.66
	30	6.2	-6.25540E-002	-1.03197E-010	0.00000E+000	-6.27000E-002	9.74422E-004	4	..........a	-327.66
	33	6.8	-9.26589E-002	-1.15407E-010	0.00000E+000	-9.27000E-002	9.61622E-004	4	..........a	-327.66
	36	7.4	-1.22644E-001	-1.27736E-010	0.00000E+000	-1.22700E-001	9.56422E-004	4	..........a	-327.66
	39	8	-1.52696E-001	-1.43495E-010	0.00000E+000	-1.52700E-001	9.66022E-004	4	..........a	-327.66
	42	8.6	-1.82713E-001	-1.61243E-010	0.00000E+000	-1.82700E-001	9.83022E-004	4	..........a	-327.66
	45	9.2	-2.12637E-001	-1.82371E-010	0.00000E+000	-2.12700E-001	9.62022E-004	4	..........a	-327.66
	48	9.8	-2.42656E-001	-2.08157E-010	0.00000E+000	-2.42700E-001	9.74422E-004	4	..........a	-327.66
	51	10.4	-2.72607E-001	-2.39177E-010	0.00000E+000	-2.72700E-001	9.62122E-004	4	..........a	-327.66
	54	11	-3.02644E-001	-2.77894E-010	0.00000E+000	-3.02700E-001	9.77222E-004	4	..........a	-327.66
	57	11.6	-3.32663E-001	-3.21562E-010	0.00000E+000	-3.32700E-001	9.74022E-004	4	..........a	-327.66
	60	12.2	-3.62555E-001	-3.56231E-010	0.00000E+000	-3.62700E-001	9.66922E-004	4	..........a	-327.66
[...]
	1085	217.2	5.89978E-001	-6.39745E-012	0.00000E+000	5.90000E-001	9.83622E-004	4	..........a	-327.66
	1086	217.4	5.80014E-001	-9.83358E-012	0.00000E+000	5.80000E-001	9.86622E-004	4	..........a	-327.66
	1087	217.6	5.69924E-001	-1.61618E-011	0.00000E+000	5.70000E-001	9.68322E-004	4	..........a	-327.66
	1088	217.8	5.59859E-001	-2.04800E-011	0.00000E+000	5.60000E-001	9.81222E-004	4	..........a	-327.66
	1089	218	5.49983E-001	-2.36931E-011	0.00000E+000	5.50000E-001	9.78122E-004	4	..........a	-327.66
	1090	218.2	5.40008E-001	-2.80603E-011	0.00000E+000	5.40000E-001	9.85422E-004	4	..........a	-327.66
	1091	218.4	5.29965E-001	-3.32455E-011	0.00000E+000	5.30000E-001	9.83522E-004	4	..........a	-327.66
	1092	218.6	5.19970E-001	-3.66236E-011	0.00000E+000	5.20000E-001	9.68222E-004	4	..........a	-327.66
	1093	218.8	5.09980E-001	-3.90687E-011	0.00000E+000	5.10000E-001	9.85822E-004	4	..........a	-327.66
	1094	219	5.00071E-001	-4.25008E-011	0.00000E+000	5.00000E-001	9.89422E-004	4	..........a	-327.66
	1095	219.2	4.89914E-001	-4.71650E-011	0.00000E+000	4.90000E-001	9.75022E-004	4	..........a	-327.66
	1096	219.4	4.79983E-001	-5.13942E-011	0.00000E+000	4.80000E-001	9.74022E-004	4	..........a	-327.66
	1097	219.6	4.69981E-001	-5.44813E-011	0.00000E+000	4.70000E-001	1.00052E-003	4	..........a	-327.66
	1098	219.8	4.60028E-001	-5.77214E-011	0.00000E+000	4.60000E-001	9.82122E-004	4	..........a	-327.66
	1099	220	4.49962E-001	-6.26686E-011	0.00000E+000	4.50000E-001	9.76222E-004	4	..........a	-327.66
	1100	220.2	4.39968E-001	-6.53087E-011	0.00000E+000	4.40000E-001	9.94822E-004	4	..........a	-327.66
	1101	220.4	4.29991E-001	-6.97299E-011	0.00000E+000	4.30000E-001	9.94722E-004	4	..........a	-327.66
	1102	220.6	4.20023E-001	-7.30250E-011	0.00000E+000	4.20000E-001	9.73522E-004	4	..........a	-327.66
	1103	220.8	4.09901E-001	-7.77262E-011	0.00000E+000	4.10000E-001	9.82822E-004	4	..........a	-327.66
	1104	221	3.99974E-001	-8.12643E-011	0.00000E+000	4.00000E-001	9.79522E-004	4	..........a	-327.66
	1105	221.2	3.89986E-001	-8.47225E-011	0.00000E+000	3.90000E-001	1.00472E-003	4	..........a	-327.66
	1106	221.4	3.80033E-001	-8.78876E-011	0.00000E+000	3.80000E-001	9.83122E-004	4	..........a	-327.66
	1107	221.6	3.70006E-001	-9.12177E-011	0.00000E+000	3.70000E-001	9.79222E-004	4	..........a	-327.66
	1108	221.8	3.60001E-001	-9.51589E-011	0.00000E+000	3.60000E-001	9.90922E-004	4	..........a	-327.66
	1109	222	3.49979E-001	-9.87750E-011	0.00000E+000	3.50000E-001	9.80722E-004	4	..........a	-327.66
	1110	222.2	3.40056E-001	-1.00672E-010	0.00000E+000	3.40000E-001	9.77422E-004	4	..........a	-327.66
	1111	222.4	3.30024E-001	-1.04353E-010	0.00000E+000	3.30000E-001	9.87522E-004	4	..........a	-327.66
	1112	222.6	3.19992E-001	-1.07619E-010	0.00000E+000	3.20000E-001	9.85122E-004	4	..........a	-327.66
	1113	222.8	3.09965E-001	-1.10705E-010	0.00000E+000	3.10000E-001	9.91522E-004	4	..........a	-327.66
	1114	223	3.00029E-001	-1.13414E-010	0.00000E+000	3.00000E-001	9.73122E-004	4	..........a	-327.66
	1115	223.2	2.90009E-001	-1.16128E-010	0.00000E+000	2.90000E-001	9.76622E-004	4	..........a	-327.66
	1116	223.4	2.79997E-001	-1.18384E-010	0.00000E+000	2.80000E-001	9.83222E-004	4	..........a	-327.66
	1117	223.6	2.70015E-001	-1.20508E-010	0.00000E+000	2.70000E-001	9.63722E-004	4	..........a	-327.66
	1118	223.8	2.60019E-001	-1.22994E-010	0.00000E+000	2.60000E-001	9.79722E-004	4	..........a	-327.66
	1119	224	2.50041E-001	-1.24773E-010	0.00000E+000	2.50000E-001	9.85522E-004	4	..........a	-327.66
	1120	224.2	2.39962E-001	-1.27588E-010	0.00000E+000	2.40000E-001	9.84822E-004	4	..........a	-327.66

File: 20240321_T_GM0016_HL03_E05_CV50k.DTA
EXPLAIN
TAG	CV
TITLE	LABEL	Cyclic Voltammetry	Test &Identifier
DATE	LABEL	3/21/2024	Date
TIME	LABEL	17:31:34	Time
NOTES	NOTES	1	&Notes...

PSTAT	PSTAT	REF600P-43058	Potentiostat
VINIT	POTEN	0.00000E+000	T	Initial &E (V)
VLIMIT1	POTEN	-6.00000E-001	F	Scan Limit &1 (V)
VLIMIT2	POTEN	8.00000E-001	F	Scan Limit &2 (V)
VFINAL	POTEN	0.00000E+000	T	Final &E (V)
SCANRATE	QUANT	4.99999E+004	&Scan Rate (mV/s)
STEPSIZE	QUANT	1.00000E+001	St&ep Size (mV)
CYCLES	IQUANT	10	C&ycles (#)
IMODE	SELECTOR	1	I/E Range &Mode
IRANGE	QUANT	1.00000E-005	&Max Current (mA)
AREA	QUANT	1.00000E+000	Electrode &Area (cm^2)
ELECTRODETYPE	SELECTOR	0	Electrode Type
STRIPPING	TOGGLE	F	Used for Stripping
POLARITY	TOGGLE	F	Signal Polarity
CONDIT	TWOPARAM	F	1.50000E+001	0.00000E+000	Conditionin&g	Time(s)	E(V)
DELAY	TWOPARAM	T	1.00000E+001	0.00000E+000	Init. De&lay	Time(s)	Stab.(mV/s)
EQDELAY	QUANT	1.00000E+001	Equil. &Time (s)
IRCOMP	SELECTOR	0	IRCom&p
PFCOR	QUANT	5.00000E+001	PF Corr. (ohm)
SAMPLINGMODE	SELECTOR	1	Sampling &Mode
OCVCURVE	TABLE	39
	Pt	T	Vf	Vm	Ach	Over	Temp
	#	s	V vs. Ref.	V	V	bits	deg C
	0	0.258333	3.98101E-001	3.98101E-001	2.23822E-004	..........a	-327.66
	1	0.516667	3.98104E-001	3.98262E-001	2.27156E-004	..........a	-327.66
	2	0.775	3.98122E-001	3.98323E-001	2.31156E-004	..........a	-327.66
	3	1.03333	3.98164E-001	3.98367E-001	2.19556E-004	..........a	-327.66
	4	1.29167	3.98228E-001	3.98472E-001	2.18889E-004	..........a	-327.66
	5	1.55	3.98308E-001	3.98810E-001	2.26956E-004	..........a	-327.66
	6	1.80833	3.98416E-001	3.99170E-001	2.44222E-004	..........a	-327.66
	7	2.06667	3.98583E-001	3.99341E-001	2.40489E-004	..........a	-327.66
	8	2.325	3.98808E-001	3.99427E-001	2.32156E-004	..........a	-327.66
	9	2.58333	3.99046E-001	3.99545E-001	2.28556E-004	..........a	-327.66
	10	2.84167	3.99254E-001	3.99727E-001	2.27022E-004	..........a	-327.66
	11	3.1	3.99422E-001	3.99904E-001	2.29222E-004	..........a	-327.66
	12	3.35833	3.99572E-001	4.00059E-001	2.44022E-004	..........a	-327.66
	13	3.61667	3.99724E-001	4.00184E-001	2.44222E-004	..........a	-327.66
	14	3.875	3.99879E-001	4.00322E-001	2.26622E-004	..........a	-327.66
	15	4.13333	4.00033E-001	4.00628E-001	2.43956E-004	..........a	-327.66
	16	4.39167	4.00194E-001	4.00798E-001	2.41622E-004	..........a	-327.66
	17	4.65	4.00371E-001	4.00810E-001	2.38756E-004	..........a	-327.66
	18	4.90833	4.00549E-001	4.00912E-001	2.32489E-004	..........a	-327.66
	19	5.16667	4.00702E-001	4.01075E-001	2.26222E-004	..........a	-327.66
	20	5.425	4.00827E-001	4.01213E-001	2.33022E-004	..........a	-327.66
	21	5.68333	4.00944E-001	4.01389E-001	2.33822E-004	..........a	-327.66
	22	5.94167	4.01073E-001	4.01550E-001	2.45089E-004	..........a	-327.66
	23	6.2	4.01217E-001	4.01709E-001	2.34889E-004	..........a	-327.66
	24	6.45833	4.01372E-001	4.01852E-001	2.29956E-004	..........a	-327.66
	25	6.71667	4.01531E-001	4.01994E-001	2.30489E-004	..........a	-327.66
	26	6.975	4.01690E-001	4.02274E-001	2.38889E-004	..........a	-327.66
	27	7.23333	4.01854E-001	4.02421E-001	2.45622E-004	..........a	-327.66
	28	7.49167	4.02028E-001	4.02475E-001	2.39156E-004	..........a	-327.66
	29	7.75	4.02201E-001	4.02587E-001	2.38889E-004	..........a	-327.66
	30	8.00833	4.02353E-001	4.02722E-001	2.27089E-004	..........a	-327.66
	31	8.26667	4.02481E-001	4.02859E-001	2.27556E-004	..........a	-327.66
	32	8.525	4.02600E-001	4.03063E-001	2.35622E-004	..........a	-327.66
	33	8.78333	4.02729E-001	4.03210E-001	2.33689E-004	..........a	-327.66
	34	9.04167	4.02874E-001	4.03365E-001	2.40956E-004	..........a	-327.66
	35	9.3	4.03031E-001	4.03496E-001	2.28956E-004	..........a	-327.66
	36	9.5583	4.03191E-001	4.03723E-001	2.30889E-004	..........a	-327.66
	37	9.8167	4.03353E-001	4.03969E-001	2.30622E-004	..........a	-327.66
	38	10.075	4.03526E-001	4.04031E-001	2.40356E-004	..........a	-327.66
EOC	QUANT	0.4035264	Open Circuit (V)
PSTATMODEL	IQUANT	7	Pstat Model
PSTATSECTION	LABEL	REF600P-43058	Pstat Section
PSTATSERIALNO	LABEL	43058	Pstat Serial Number
CTRLMODE	IQUANT	1	Control Mode
ELECTROMETER	IQUANT	0	RE=0 or CS=1
IESTAB	IQUANT	2	I/E Stability
CASPEED	IQUANT	4	Control Amp Speed
CONVENTION	IQUANT	1	Current Convention
ICHRANGE	IQUANT	2	Ich Range
ICHRANGEMODE	TOGGLE	F	Ich Auto Range
ICHOFFSETENABLE	TOGGLE	F	Ich Offset Enable
ICHOFFSET	QUANT	0	Ich Offset (V)
ICHFILTER	IQUANT	1	Ich Filter
VCHRANGE	IQUANT	2	Vch Range
VCHRANGEMODE	TOGGLE	F	Vch Auto Range
VCHOFFSETENABLE	TOGGLE	F	Vch Offset Enable
VCHOFFSET	QUANT	0	Vch Offset (V)
VCHFILTER	IQUANT	1	Vch Filter
ACHRANGE	IQUANT	2	Ach Range
ACHOFFSETENABLE	TOGGLE	F	Ach Offset Enable
ACHOFFSET	QUANT	0	Ach Offset (V)
ACHFILTER	IQUANT	1	Ach Filter
IERANGELOWERLIMIT	IQUANT	1	I/E Range Lower Limit
IERANGEMODE	TOGGLE	F	I/E AutoRange
IERANGE	IQUANT	4	I/E Range
POSFEEDENABLE	TOGGLE	F	Positive Feedback IR Comp
POSFEEDRESISTANCE	QUANT	0	Positive Feedback Resistance (ohm)
ACHSELECT	IQUANT	4	Ach Select
SENSECABLEID	IQUANT	7	Sense Cable ID
PWRCABLEID	IQUANT	7	Power Cable ID
DCCALDATE	LABEL	12/18/2023	DC Calibration Date
ACCALDATE	LABEL	12/18/2023	AC Calibration Date
THERMOSELECT	IQUANT	1	Thermo Select
FRAMEWORKVERSION	LABEL	7.8.4	Framework Version
INSTRUMENTVERSION	LABEL	4.42	Instrument Version
CURVE1	TABLE
	Pt	T	Vf	Im	Vu	Sig	Ach	IERange	Over	Temp
	#	s	V vs. Ref.	A	V	V	V	#	bits	deg C
	0	0.0002	4.03570E-001	2.27885E-011	0.00000E+000	4.03550E-001	8.00223E-005	4	..........a	-327.66
	3	0.0008	3.73470E-001	-8.42156E-011	0.00000E+000	3.73550E-001	8.00223E-005	4	..........a	-327.66
	6	0.0014	3.43570E-001	-2.07220E-010	0.00000E+000	3.43550E-001	-4.19978E-004	4	..........a	-327.66
	9	0.002	3.13570E-001	-3.46226E-010	0.00000E+000	3.13550E-001	8.00223E-005	4	..........a	-327.66
	12	0.0026	2.83670E-001	-5.00232E-010	0.00000E+000	2.83550E-001	8.00223E-005	4	..........a	-327.66
	15	0.0032	2.53570E-001	-6.64238E-010	0.00000E+000	2.53550E-001	8.00223E-005	4	..........a	-327.66
	18	0.0038	2.23570E-001	-8.45245E-010	0.00000E+000	2.23550E-001	8.00223E-005	4	..........a	-327.66
	21	0.0044	1.93770E-001	-1.04725E-009	0.00000E+000	1.93550E-001	8.00223E-005	4	..........a	-327.66
	24	0.005	1.63670E-001	-1.26726E-009	0.00000E+000	1.63550E-001	8.00223E-005	4	..........a	-327.66
	27	0.0056	1.33670E-001	-1.51027E-009	0.00000E+000	1.33550E-001	8.00223E-005	4	..........a	-327.66
	30	0.0062	1.03570E-001	-1.77728E-009	0.00000E+000	1.03550E-001	8.00223E-005	4	..........a	-327.66
	33	0.0068	7.34695E-002	-2.06829E-009	0.00000E+000	7.35500E-002	8.00223E-005	4	..........a	-327.66
	36	0.0074	4.36695E-002	-2.38630E-009	0.00000E+000	4.35500E-002	8.00223E-005	4	..........a	-327.66
	39	0.008	1.36695E-002	-2.73232E-009	0.00000E+000	1.35500E-002	8.00223E-005	4	..........a	-327.66
	42	0.0086	-1.63805E-002	-3.10033E-009	0.00000E+000	-1.64500E-002	8.00223E-005	4	..........a	-327.66
	45	0.0092	-4.63305E-002	-3.49835E-009	0.00000E+000	-4.64500E-002	8.00223E-005	4	..........a	-327.66
	48	0.0098	-7.64305E-002	-3.90736E-009	0.00000E+000	-7.64500E-002	8.00223E-005	4	..........a	-327.66
	51	0.0104	-1.06430E-001	-4.33638E-009	0.00000E+000	-1.06450E-001	8.00223E-005	4	..........a	-327.66
	54	0.011	-1.36230E-001	-4.78340E-009	0.00000E+000	-1.36450E-001	8.00223E-005	4	..........a	-327.66
	57	0.0116	-1.66430E-001	-5.23641E-009	0.00000E+000	-1.66450E-001	8.00223E-005	4	..........a	-327.66
[...]
	2765	0.5532	7.49969E-001	7.48507E-009	0.00000E+000	7.50000E-001	8.00223E-005	4	..........a	-327.66
	2766	0.5534	7.39969E-001	7.49308E-009	0.00000E+000	7.40000E-001	8.00223E-005	4	..........a	-327.66
	2767	0.5536	7.29769E-001	7.49008E-009	0.00000E+000	7.30000E-001	8.00223E-005	4	..........a	-327.66
	2768	0.5538	7.19669E-001	7.47407E-009	0.00000E+000	7.20000E-001	8.00223E-005	4	..........a	-327.66
	2769	0.554	7.09870E-001	7.45207E-009	0.00000E+000	7.10000E-001	-2.19978E-004	4	..........a	-327.66
	2770	0.5542	6.99769E-001	7.43107E-009	0.00000E+000	7.00000E-001	8.00223E-005	4	..........a	-327.66
	2771	0.5544	6.89869E-001	7.39007E-009	0.00000E+000	6.90000E-001	8.00223E-005	4	..........a	-327.66
	2772	0.5546	6.79769E-001	7.35807E-009	0.00000E+000	6.80000E-001	8.00223E-005	4	..........a	-327.66
	2773	0.5548	6.70069E-001	7.31707E-009	0.00000E+000	6.70000E-001	8.00223E-005	4	..........a	-327.66
	2774	0.555	6.59970E-001	7.27807E-009	0.00000E+000	6.60000E-001	8.00223E-005	4	..........a	-327.66
	2775	0.5552	6.49870E-001	7.22807E-009	0.00000E+000	6.50000E-001	8.00223E-005	4	..........a	-327.66
	2776	0.5554	6.39870E-001	7.18006E-009	0.00000E+000	6.40000E-001	8.00223E-005	4	..........a	-327.66
	2777	0.5556	6.29969E-001	7.12906E-009	0.00000E+000	6.30000E-001	8.00223E-005	4	..........a	-327.66
	2778	0.5558	6.20169E-001	7.06706E-009	0.00000E+000	6.20000E-001	8.00223E-005	4	..........a	-327.66
	2779	0.556	6.09969E-001	7.00906E-009	0.00000E+000	6.10000E-001	8.00223E-005	4	..........a	-327.66
	2780	0.5562	5.99970E-001	6.95205E-009	0.00000E+000	6.00000E-001	8.00223E-005	4	..........a	-327.66
	2781	0.5564	5.89869E-001	6.88605E-009	0.00000E+000	5.90000E-001	8.00223E-005	4	..........a	-327.66
	2782	0.5566	5.80069E-001	6.81605E-009	0.00000E+000	5.80000E-001	8.00223E-005	4	..........a	-327.66
	2783	0.5568	5.69969E-001	6.75005E-009	0.00000E+000	5.70000E-001	8.00223E-005	4	..........a	-327.66
	2784	0.557	5.59869E-001	6.68904E-009	0.00000E+000	5.60000E-001	8.00223E-005	4	..........a	-327.66
	2785	0.5572	5.50070E-001	6.61804E-009	0.00000E+000	5.50000E-001	8.00223E-005	4	..........a	-327.66
	2786	0.5574	5.39970E-001	6.54204E-009	0.00000E+000	5.40000E-001	8.00223E-005	4	..........a	-327.66
	2787	0.5576	5.29970E-001	6.46604E-009	0.00000E+000	5.30000E-001	8.00223E-005	4	..........a	-327.66
	2788	0.5578	5.19969E-001	6.39303E-009	0.00000E+000	5.20000E-001	8.00223E-005	4	..........a	-327.66
	2789	0.558	5.10069E-001	6.31403E-009	0.00000E+000	5.10000E-001	8.00223E-005	4	..........a	-327.66
	2790	0.5582	5.00069E-001	6.23403E-009	0.00000E+000	5.00000E-001	8.00223E-005	4	..........a	-327.66
	2791	0.5584	4.89970E-001	6.15002E-009	0.00000E+000	4.90000E-001	8.00223E-005	4	..........a	-327.66
	2792	0.5586	4.79970E-001	6.07102E-009	0.00000E+000	4.80000E-001	8.00223E-005	4	..........a	-327.66
	2793	0.5588	4.69870E-001	5.98502E-009	0.00000E+000	4.70000E-001	8.00223E-005	4	..........a	-327.66
	2794	0.559	4.60070E-001	5.89701E-009	0.00000E+000	4.60000E-001	8.00223E-005	4	..........a	-327.66
	2795	0.5592	4.49670E-001	5.80801E-009	0.00000E+000	4.50000E-001	8.00223E-005	4	..........a	-327.66
	2796	0.5594	4.40070E-001	5.71801E-009	0.00000E+000	4.40000E-001	8.00223E-005	4	..........a	-327.66
	2797	0.5596	4.30070E-001	5.62500E-009	0.00000E+000	4.30000E-001	8.00223E-005	4	..........a	-327.66
	2798	0.5598	4.19970E-001	5.53400E-009	0.00000E+000	4.20000E-001	8.00223E-005	4	..........a	-327.66
	2799	0.56	4.09770E-001	5.43500E-009	0.00000E+000	4.10000E-001	8.00223E-005	4	..........a	-327.66
	2800	0.5602	4.00170E-001	5.33699E-009	0.00000E+000	4.00000E-001	8.00223E-005	4	..........a	-327.66