Folder: GamryParser/data/raw/batch_data (part 19)

File: 20240509_ZZY_GM0016_HL03_E13_CV50.DTA
EXPLAIN
TAG	CV
TITLE	LABEL	Cyclic Voltammetry	Test &Identifier
DATE	LABEL	5/9/2024	Date
TIME	LABEL	15:09:27	Time
NOTES	NOTES	1	&Notes...

PSTAT	PSTAT	REF600P-43058	Potentiostat
VINIT	POTEN	0.00000E+000	T	Initial &E (V)
VLIMIT1	POTEN	8.00000E-001	F	Scan Limit &1 (V)
VLIMIT2	POTEN	-6.00000E-001	F	Scan Limit &2 (V)
VFINAL	POTEN	0.00000E+000	T	Final &E (V)
SCANRATE	QUANT	4.99999E+001	&Scan Rate (mV/s)
STEPSIZE	QUANT	1.00000E+001	St&ep Size (mV)
CYCLES	IQUANT	4	C&ycles (#)
IMODE	SELECTOR	0	I/E Range &Mode
IRANGE	QUANT	1.00000E-005	&Max Current (mA)
AREA	QUANT	1.00000E+000	Electrode &Area (cm^2)
ELECTRODETYPE	SELECTOR	0	Electrode Type
STRIPPING	TOGGLE	F	Used for Stripping
POLARITY	TOGGLE	F	Signal Polarity
CONDIT	TWOPARAM	F	1.50000E+001	0.00000E+000	Conditionin&g	Time(s)	E(V)
DELAY	TWOPARAM	T	1.00000E+001	0.00000E+000	Init. De&lay	Time(s)	Stab.(mV/s)
EQDELAY	QUANT	1.00000E+001	Equil. &Time (s)
IRCOMP	SELECTOR	0	IRCom&p
PFCOR	QUANT	5.00000E+001	PF Corr. (ohm)
SAMPLINGMODE	SELECTOR	1	Sampling &Mode
OCVCURVE	TABLE	39
	Pt	T	Vf	Vm	Ach	Over	Temp
	#	s	V vs. Ref.	V	V	bits	deg C
	0	0.258333	-9.48231E-002	-9.48231E-002	2.40659E-004	..........a	-327.66
	1	0.516667	-9.48283E-002	-9.50949E-002	2.30126E-004	..........a	-327.66
	2	0.775	-9.48604E-002	-9.53619E-002	2.33192E-004	..........a	-327.66
	3	1.03333	-9.49512E-002	-9.55946E-002	2.27326E-004	..........a	-327.66
	4	1.29167	-9.51135E-002	-9.58448E-002	2.31526E-004	..........a	-327.66
	5	1.55	-9.53296E-002	-9.61074E-002	2.35126E-004	..........a	-327.66
	6	1.80833	-9.55733E-002	-9.63695E-002	2.34326E-004	..........a	-327.66
	7	2.06667	-9.58283E-002	-9.66399E-002	2.34392E-004	..........a	-327.66
	8	2.325	-9.60884E-002	-9.68981E-002	2.33192E-004	..........a	-327.66
	9	2.58333	-9.63507E-002	-9.71337E-002	2.44059E-004	..........a	-327.66
	10	2.84167	-9.66115E-002	-9.73898E-002	2.33326E-004	..........a	-327.66
	11	3.1	-9.68674E-002	-9.76169E-002	2.49592E-004	..........a	-327.66
	12	3.35833	-9.71171E-002	-9.78558E-002	2.46192E-004	..........a	-327.66
	13	3.61667	-9.73612E-002	-9.80966E-002	2.33192E-004	..........a	-327.66
	14	3.875	-9.76013E-002	-9.83410E-002	2.43526E-004	..........a	-327.66
	15	4.13333	-9.78406E-002	-9.85959E-002	2.45059E-004	..........a	-327.66
	16	4.39167	-9.80821E-002	-9.88487E-002	2.24726E-004	..........a	-327.66
	17	4.65	-9.83265E-002	-9.90488E-002	2.41392E-004	..........a	-327.66
	18	4.90833	-9.85700E-002	-9.92681E-002	2.27526E-004	..........a	-327.66
	19	5.16667	-9.88065E-002	-9.95045E-002	2.23526E-004	..........a	-327.66
	20	5.425	-9.90354E-002	-9.97469E-002	2.34659E-004	..........a	-327.66
	21	5.68333	-9.92455E-002	-9.90985E-002	2.30392E-004	..........a	-327.66
	22	5.94167	-9.93853E-002	-9.91962E-002	2.31659E-004	..........a	-327.66
	23	6.2	-9.94097E-002	-9.93708E-002	2.43326E-004	..........a	-327.66
	24	6.45833	-9.93625E-002	-9.95406E-002	2.39526E-004	..........a	-327.66
	25	6.71667	-9.93418E-002	-9.97119E-002	2.28059E-004	..........a	-327.66
	26	6.975	-9.94003E-002	-9.98891E-002	2.34992E-004	..........a	-327.66
	27	7.23333	-9.95272E-002	-1.00044E-001	2.27792E-004	..........a	-327.66
	28	7.49167	-9.96891E-002	-1.00207E-001	2.34992E-004	..........a	-327.66
	29	7.75	-9.98604E-002	-1.00369E-001	2.38059E-004	..........a	-327.66
	30	8.00833	-1.00030E-001	-1.00573E-001	2.34659E-004	..........a	-327.66
	31	8.26667	-1.00200E-001	-1.00792E-001	2.38992E-004	..........a	-327.66
	32	8.525	-1.00378E-001	-1.00966E-001	2.22726E-004	..........a	-327.66
	33	8.78333	-1.00566E-001	-1.01133E-001	2.36792E-004	..........a	-327.66
	34	9.04167	-1.00755E-001	-1.01286E-001	2.41192E-004	..........a	-327.66
	35	9.3	-1.00939E-001	-1.01446E-001	2.30992E-004	..........a	-327.66
	36	9.5583	-1.01111E-001	-1.01598E-001	2.24726E-004	..........a	-327.66
	37	9.8167	-1.01274E-001	-1.01766E-001	2.40726E-004	..........a	-327.66
	38	10.075	-1.01434E-001	-1.01937E-001	2.38259E-004	..........a	-327.66
EOC	QUANT	-0.1014337	Open Circuit (V)
PSTATMODEL	IQUANT	7	Pstat Model
PSTATSECTION	LABEL	REF600P-43058	Pstat Section
PSTATSERIALNO	LABEL	43058	Pstat Serial Number
CTRLMODE	IQUANT	1	Control Mode
ELECTROMETER	IQUANT	0	RE=0 or CS=1
IESTAB	IQUANT	2	I/E Stability
CASPEED	IQUANT	4	Control Amp Speed
CONVENTION	IQUANT	1	Current Convention
ICHRANGE	IQUANT	2	Ich Range
ICHRANGEMODE	TOGGLE	F	Ich Auto Range
ICHOFFSETENABLE	TOGGLE	F	Ich Offset Enable
ICHOFFSET	QUANT	0	Ich Offset (V)
ICHFILTER	IQUANT	2	Ich Filter
VCHRANGE	IQUANT	2	Vch Range
VCHRANGEMODE	TOGGLE	F	Vch Auto Range
VCHOFFSETENABLE	TOGGLE	F	Vch Offset Enable
VCHOFFSET	QUANT	0	Vch Offset (V)
VCHFILTER	IQUANT	2	Vch Filter
ACHRANGE	IQUANT	2	Ach Range
ACHOFFSETENABLE	TOGGLE	F	Ach Offset Enable
ACHOFFSET	QUANT	0	Ach Offset (V)
ACHFILTER	IQUANT	1	Ach Filter
IERANGELOWERLIMIT	IQUANT	1	I/E Range Lower Limit
IERANGEMODE	TOGGLE	T	I/E AutoRange
IERANGE	IQUANT	4	I/E Range
POSFEEDENABLE	TOGGLE	F	Positive Feedback IR Comp
POSFEEDRESISTANCE	QUANT	0	Positive Feedback Resistance (ohm)
ACHSELECT	IQUANT	4	Ach Select
SENSECABLEID	IQUANT	7	Sense Cable ID
PWRCABLEID	IQUANT	7	Power Cable ID
DCCALDATE	LABEL	3/22/2024	DC Calibration Date
ACCALDATE	LABEL	3/22/2024	AC Calibration Date
THERMOSELECT	IQUANT	1	Thermo Select
FRAMEWORKVERSION	LABEL	7.8.4	Framework Version
INSTRUMENTVERSION	LABEL	4.42	Instrument Version
CURVE1	TABLE
	Pt	T	Vf	Im	Vu	Sig	Ach	IERange	Over	Temp
	#	s	V vs. Ref.	A	V	V	V	#	bits	deg C
	0	0.2	-1.01304E-001	3.30504E-009	0.00000E+000	-1.01450E-001	9.95292E-004	5	..........a	-327.66
	3	0.8	-7.14090E-002	3.35218E-008	0.00000E+000	-7.14500E-002	9.75392E-004	5	..........a	-327.66
	6	1.4	-4.14197E-002	5.35178E-008	0.00000E+000	-4.14500E-002	9.71192E-004	5	..........a	-327.66
	9	2	-1.13865E-002	7.11522E-008	0.00000E+000	-1.14500E-002	9.78992E-004	5	..........a	-327.66
	12	2.6	1.86673E-002	8.49948E-008	0.00000E+000	1.85500E-002	9.93892E-004	5	..........a	-327.66
	15	3.2	4.86017E-002	9.88040E-008	0.00000E+000	4.85500E-002	9.87792E-004	5	..........a	-327.66
	18	3.8	7.85534E-002	1.13644E-007	0.00000E+000	7.85500E-002	9.86392E-004	5	..........a	-327.66
	21	4.4	1.08567E-001	1.29753E-007	0.00000E+000	1.08550E-001	9.77292E-004	5	..........a	-327.66
	24	5	1.38607E-001	1.48805E-007	0.00000E+000	1.38550E-001	9.84192E-004	5	..........a	-327.66
	27	5.6	1.68473E-001	1.63455E-007	0.00000E+000	1.68550E-001	9.80692E-004	5	..........a	-327.66
	30	6.2	1.98481E-001	1.82031E-007	0.00000E+000	1.98550E-001	9.89692E-004	5	..........a	-327.66
	33	6.8	2.28454E-001	1.98782E-007	0.00000E+000	2.28550E-001	1.00749E-003	5	..........a	-327.66
	36	7.4	2.58541E-001	2.10425E-007	0.00000E+000	2.58550E-001	9.87092E-004	5	..........a	-327.66
	39	8	2.88481E-001	2.21633E-007	0.00000E+000	2.88550E-001	9.85892E-004	5	..........a	-327.66
	42	8.6	3.18480E-001	2.61864E-007	0.00000E+000	3.18550E-001	9.94692E-004	5	..........a	-327.66
	45	9.2	3.48488E-001	2.80200E-007	0.00000E+000	3.48550E-001	9.91092E-004	5	..........a	-327.66
	48	9.8	3.78511E-001	2.92050E-007	0.00000E+000	3.78550E-001	9.82492E-004	5	..........a	-327.66
	51	10.4	4.08381E-001	3.26851E-007	0.00000E+000	4.08550E-001	9.81092E-004	5	..........a	-327.66
	54	11	4.38328E-001	3.46846E-007	0.00000E+000	4.38550E-001	1.00029E-003	5	..........a	-327.66
	57	11.6	4.68403E-001	3.69004E-007	0.00000E+000	4.68550E-001	9.78092E-004	5	..........a	-327.66
	60	12.2	4.98369E-001	3.86023E-007	0.00000E+000	4.98550E-001	9.79692E-004	5	..........a	-327.66
[...]
	1085	217.2	-4.49842E-001	-5.82943E-008	0.00000E+000	-4.50000E-001	9.80792E-004	5	..........a	-327.66
	1086	217.4	-4.39864E-001	-5.28347E-008	0.00000E+000	-4.40000E-001	9.85092E-004	5	..........a	-327.66
	1087	217.6	-4.29848E-001	-4.67641E-008	0.00000E+000	-4.30000E-001	9.76792E-004	5	..........a	-327.66
	1088	217.8	-4.19810E-001	-4.04408E-008	0.00000E+000	-4.20000E-001	9.71592E-004	5	..........a	-327.66
	1089	218	-4.09866E-001	-3.41062E-008	0.00000E+000	-4.10000E-001	9.77992E-004	5	..........a	-327.66
	1090	218.2	-3.99876E-001	-2.79331E-008	0.00000E+000	-4.00000E-001	9.83792E-004	5	..........a	-327.66
	1091	218.4	-3.89928E-001	-2.19232E-008	0.00000E+000	-3.90000E-001	9.84192E-004	5	..........a	-327.66
	1092	218.6	-3.79844E-001	-1.59708E-008	0.00000E+000	-3.80000E-001	9.67792E-004	5	..........a	-327.66
	1093	218.8	-3.69848E-001	-1.02349E-008	0.00000E+000	-3.70000E-001	9.68892E-004	5	..........a	-327.66
	1094	219	-3.59875E-001	-4.60171E-009	0.00000E+000	-3.60000E-001	9.91992E-004	5	..........a	-327.66
	1095	219.2	-3.49898E-001	8.86000E-010	0.00000E+000	-3.50000E-001	9.57792E-004	5	..........a	-327.66
	1096	219.4	-3.39844E-001	6.28642E-009	0.00000E+000	-3.40000E-001	9.55992E-004	5	..........a	-327.66
	1097	219.6	-3.29930E-001	1.14587E-008	0.00000E+000	-3.30000E-001	1.00759E-003	5	..........a	-327.66
	1098	219.8	-3.19894E-001	1.65247E-008	0.00000E+000	-3.20000E-001	9.62692E-004	5	..........a	-327.66
	1099	220	-3.09940E-001	2.13974E-008	0.00000E+000	-3.10000E-001	9.68792E-004	5	..........a	-327.66
	1100	220.2	-2.99879E-001	2.63399E-008	0.00000E+000	-3.00000E-001	9.66892E-004	5	..........a	-327.66
	1101	220.4	-2.89927E-001	3.09622E-008	0.00000E+000	-2.90000E-001	9.69392E-004	5	..........a	-327.66
	1102	220.6	-2.79941E-001	3.55074E-008	0.00000E+000	-2.80000E-001	9.68492E-004	5	..........a	-327.66
	1103	220.8	-2.69905E-001	4.02479E-008	0.00000E+000	-2.70000E-001	9.75292E-004	5	..........a	-327.66
	1104	221	-2.59874E-001	4.48926E-008	0.00000E+000	-2.60000E-001	9.75192E-004	5	..........a	-327.66
	1105	221.2	-2.49937E-001	4.94056E-008	0.00000E+000	-2.50000E-001	9.76392E-004	5	..........a	-327.66
	1106	221.4	-2.39977E-001	5.38479E-008	0.00000E+000	-2.40000E-001	9.77492E-004	5	..........a	-327.66
	1107	221.6	-2.29964E-001	5.82329E-008	0.00000E+000	-2.30000E-001	9.68392E-004	5	..........a	-327.66
	1108	221.8	-2.19922E-001	6.84741E-008	0.00000E+000	-2.20000E-001	9.92892E-004	5	..........a	-327.66
	1109	222	-2.09945E-001	7.11647E-008	0.00000E+000	-2.10000E-001	9.93592E-004	5	..........a	-327.66
	1110	222.2	-2.00008E-001	7.45758E-008	0.00000E+000	-2.00000E-001	9.72692E-004	5	..........a	-327.66
	1111	222.4	-1.89936E-001	7.77915E-008	0.00000E+000	-1.90000E-001	9.82992E-004	5	..........a	-327.66
	1112	222.6	-1.79978E-001	8.13555E-008	0.00000E+000	-1.80000E-001	9.85292E-004	5	..........a	-327.66
	1113	222.8	-1.69951E-001	8.52507E-008	0.00000E+000	-1.70000E-001	9.84192E-004	5	..........a	-327.66
	1114	223	-1.60056E-001	8.90480E-008	0.00000E+000	-1.60000E-001	9.91092E-004	5	..........a	-327.66
	1115	223.2	-1.50017E-001	9.27765E-008	0.00000E+000	-1.50000E-001	9.76792E-004	5	..........a	-327.66
	1116	223.4	-1.39974E-001	9.64820E-008	0.00000E+000	-1.40000E-001	9.63692E-004	5	..........a	-327.66
	1117	223.6	-1.29980E-001	1.01583E-007	0.00000E+000	-1.30000E-001	9.78192E-004	5	..........a	-327.66
	1118	223.8	-1.20017E-001	1.04085E-007	0.00000E+000	-1.20000E-001	9.78592E-004	5	..........a	-327.66
	1119	224	-1.10012E-001	1.07643E-007	0.00000E+000	-1.10000E-001	9.91792E-004	5	..........a	-327.66
	1120	224.2	-9.99965E-002	1.11364E-007	0.00000E+000	-1.00000E-001	9.85892E-004	5	..........a	-327.66

File: 20240509_ZZZC_GM0016_HL03_E14_CV50.DTA
EXPLAIN
TAG	CV
TITLE	LABEL	Cyclic Voltammetry	Test &Identifier
DATE	LABEL	5/9/2024	Date
TIME	LABEL	15:23:37	Time
NOTES	NOTES	1	&Notes...

PSTAT	PSTAT	REF600P-43058	Potentiostat
VINIT	POTEN	0.00000E+000	T	Initial &E (V)
VLIMIT1	POTEN	8.00000E-001	F	Scan Limit &1 (V)
VLIMIT2	POTEN	-6.00000E-001	F	Scan Limit &2 (V)
VFINAL	POTEN	0.00000E+000	T	Final &E (V)
SCANRATE	QUANT	4.99999E+001	&Scan Rate (mV/s)
STEPSIZE	QUANT	1.00000E+001	St&ep Size (mV)
CYCLES	IQUANT	4	C&ycles (#)
IMODE	SELECTOR	0	I/E Range &Mode
IRANGE	QUANT	1.00000E-005	&Max Current (mA)
AREA	QUANT	1.00000E+000	Electrode &Area (cm^2)
ELECTRODETYPE	SELECTOR	0	Electrode Type
STRIPPING	TOGGLE	F	Used for Stripping
POLARITY	TOGGLE	F	Signal Polarity
CONDIT	TWOPARAM	F	1.50000E+001	0.00000E+000	Conditionin&g	Time(s)	E(V)
DELAY	TWOPARAM	T	1.00000E+001	0.00000E+000	Init. De&lay	Time(s)	Stab.(mV/s)
EQDELAY	QUANT	1.00000E+001	Equil. &Time (s)
IRCOMP	SELECTOR	0	IRCom&p
PFCOR	QUANT	5.00000E+001	PF Corr. (ohm)
SAMPLINGMODE	SELECTOR	1	Sampling &Mode
OCVCURVE	TABLE	39
	Pt	T	Vf	Vm	Ach	Over	Temp
	#	s	V vs. Ref.	V	V	bits	deg C
	0	0.258333	-1.52945E-001	-1.52945E-001	2.02992E-004	..........a	-327.66
	1	0.516667	-1.52949E-001	-1.53156E-001	2.07526E-004	..........a	-327.66
	2	0.775	-1.52974E-001	-1.53375E-001	2.11259E-004	..........a	-327.66
	3	1.03333	-1.53046E-001	-1.53586E-001	2.04126E-004	..........a	-327.66
	4	1.29167	-1.53178E-001	-1.53801E-001	2.08659E-004	..........a	-327.66
	5	1.55	-1.53358E-001	-1.54021E-001	2.15126E-004	..........a	-327.66
	6	1.80833	-1.53565E-001	-1.54223E-001	2.06859E-004	..........a	-327.66
	7	2.06667	-1.53780E-001	-1.54414E-001	2.12792E-004	..........a	-327.66
	8	2.325	-1.53993E-001	-1.54596E-001	2.11726E-004	..........a	-327.66
	9	2.58333	-1.54198E-001	-1.54806E-001	2.05859E-004	..........a	-327.66
	10	2.84167	-1.54396E-001	-1.54993E-001	2.12859E-004	..........a	-327.66
	11	3.1	-1.54591E-001	-1.55185E-001	2.01792E-004	..........a	-327.66
	12	3.35833	-1.54785E-001	-1.55423E-001	2.04659E-004	..........a	-327.66
	13	3.61667	-1.54984E-001	-1.55642E-001	2.08726E-004	..........a	-327.66
	14	3.875	-1.55189E-001	-1.55846E-001	2.12592E-004	..........a	-327.66
	15	4.13333	-1.55402E-001	-1.56085E-001	2.06259E-004	..........a	-327.66
	16	4.39167	-1.55619E-001	-1.56281E-001	2.12192E-004	..........a	-327.66
	17	4.65	-1.55841E-001	-1.56705E-001	2.06859E-004	..........a	-327.66
	18	4.90833	-1.56083E-001	-1.57138E-001	2.07192E-004	..........a	-327.66
	19	5.16667	-1.56371E-001	-1.57657E-001	1.98859E-004	..........a	-327.66
	20	5.425	-1.56721E-001	-1.57897E-001	2.00126E-004	..........a	-327.66
	21	5.68333	-1.57111E-001	-1.58105E-001	2.07192E-004	..........a	-327.66
	22	5.94167	-1.57488E-001	-1.58305E-001	1.98326E-004	..........a	-327.66
	23	6.2	-1.57810E-001	-1.58495E-001	2.06392E-004	..........a	-327.66
	24	6.45833	-1.58071E-001	-1.58697E-001	1.98926E-004	..........a	-327.66
	25	6.71667	-1.58289E-001	-1.58887E-001	2.06259E-004	..........a	-327.66
	26	6.975	-1.58488E-001	-1.59069E-001	2.10792E-004	..........a	-327.66
	27	7.23333	-1.58682E-001	-1.59361E-001	2.05926E-004	..........a	-327.66
	28	7.49167	-1.58881E-001	-1.59543E-001	2.14326E-004	..........a	-327.66
	29	7.75	-1.59091E-001	-1.59756E-001	2.05326E-004	..........a	-327.66
	30	8.00833	-1.59309E-001	-1.59949E-001	1.94792E-004	..........a	-327.66
	31	8.26667	-1.59523E-001	-1.60096E-001	2.08792E-004	..........a	-327.66
	32	8.525	-1.59725E-001	-1.60256E-001	2.03526E-004	..........a	-327.66
	33	8.78333	-1.59912E-001	-1.60424E-001	2.03859E-004	..........a	-327.66
	34	9.04167	-1.60085E-001	-1.60599E-001	1.95726E-004	..........a	-327.66
	35	9.3	-1.60251E-001	-1.60765E-001	1.99792E-004	..........a	-327.66
	36	9.5583	-1.60417E-001	-1.60963E-001	2.01659E-004	..........a	-327.66
	37	9.8167	-1.60588E-001	-1.61145E-001	2.00392E-004	..........a	-327.66
	38	10.075	-1.60764E-001	-1.61351E-001	1.94726E-004	..........a	-327.66
EOC	QUANT	-0.1607644	Open Circuit (V)
PSTATMODEL	IQUANT	7	Pstat Model
PSTATSECTION	LABEL	REF600P-43058	Pstat Section
PSTATSERIALNO	LABEL	43058	Pstat Serial Number
CTRLMODE	IQUANT	1	Control Mode
ELECTROMETER	IQUANT	0	RE=0 or CS=1
IESTAB	IQUANT	2	I/E Stability
CASPEED	IQUANT	4	Control Amp Speed
CONVENTION	IQUANT	1	Current Convention
ICHRANGE	IQUANT	2	Ich Range
ICHRANGEMODE	TOGGLE	F	Ich Auto Range
ICHOFFSETENABLE	TOGGLE	F	Ich Offset Enable
ICHOFFSET	QUANT	0	Ich Offset (V)
ICHFILTER	IQUANT	2	Ich Filter
VCHRANGE	IQUANT	2	Vch Range
VCHRANGEMODE	TOGGLE	F	Vch Auto Range
VCHOFFSETENABLE	TOGGLE	F	Vch Offset Enable
VCHOFFSET	QUANT	0	Vch Offset (V)
VCHFILTER	IQUANT	2	Vch Filter
ACHRANGE	IQUANT	2	Ach Range
ACHOFFSETENABLE	TOGGLE	F	Ach Offset Enable
ACHOFFSET	QUANT	0	Ach Offset (V)
ACHFILTER	IQUANT	1	Ach Filter
IERANGELOWERLIMIT	IQUANT	1	I/E Range Lower Limit
IERANGEMODE	TOGGLE	T	I/E AutoRange
IERANGE	IQUANT	4	I/E Range
POSFEEDENABLE	TOGGLE	F	Positive Feedback IR Comp
POSFEEDRESISTANCE	QUANT	0	Positive Feedback Resistance (ohm)
ACHSELECT	IQUANT	4	Ach Select
SENSECABLEID	IQUANT	7	Sense Cable ID
PWRCABLEID	IQUANT	7	Power Cable ID
DCCALDATE	LABEL	3/22/2024	DC Calibration Date
ACCALDATE	LABEL	3/22/2024	AC Calibration Date
THERMOSELECT	IQUANT	1	Thermo Select
FRAMEWORKVERSION	LABEL	7.8.4	Framework Version
INSTRUMENTVERSION	LABEL	4.42	Instrument Version
CURVE1	TABLE
	Pt	T	Vf	Im	Vu	Sig	Ach	IERange	Over	Temp
	#	s	V vs. Ref.	A	V	V	V	#	bits	deg C
	0	0.2	-1.60630E-001	4.88405E-009	0.00000E+000	-1.60750E-001	9.47792E-004	5	..........a	-327.66
	3	0.8	-1.30752E-001	5.23996E-008	0.00000E+000	-1.30750E-001	9.54792E-004	5	..........a	-327.66
	6	1.4	-1.00748E-001	7.90134E-008	0.00000E+000	-1.00750E-001	9.57192E-004	5	..........a	-327.66
	9	2	-7.07257E-002	9.93902E-008	0.00000E+000	-7.07500E-002	9.55492E-004	5	..........a	-327.66
	12	2.6	-4.07460E-002	1.18524E-007	0.00000E+000	-4.07500E-002	9.41592E-004	5	..........a	-327.66
	15	3.2	-1.07408E-002	1.35668E-007	0.00000E+000	-1.07500E-002	9.48492E-004	5	..........a	-327.66
	18	3.8	1.91558E-002	1.50991E-007	0.00000E+000	1.92500E-002	9.51892E-004	5	..........a	-327.66
	21	4.4	4.91852E-002	1.68518E-007	0.00000E+000	4.92500E-002	9.57592E-004	5	..........a	-327.66
	24	5	7.92294E-002	1.89268E-007	0.00000E+000	7.92500E-002	9.51192E-004	5	..........a	-327.66
	27	5.6	1.09183E-001	2.06781E-007	0.00000E+000	1.09250E-001	9.59092E-004	5	..........a	-327.66
	30	6.2	1.39210E-001	2.29631E-007	0.00000E+000	1.39250E-001	9.49192E-004	5	..........a	-327.66
	33	6.8	1.69214E-001	2.54158E-007	0.00000E+000	1.69250E-001	9.65992E-004	5	..........a	-327.66
	36	7.4	1.99174E-001	2.81071E-007	0.00000E+000	1.99250E-001	9.51092E-004	5	..........a	-327.66
	39	8	2.29104E-001	3.13948E-007	0.00000E+000	2.29250E-001	9.66392E-004	5	..........a	-327.66
	42	8.6	2.59067E-001	3.35569E-007	0.00000E+000	2.59250E-001	9.71392E-004	5	..........a	-327.66
	45	9.2	2.89143E-001	3.54326E-007	0.00000E+000	2.89250E-001	9.54392E-004	5	..........a	-327.66
	48	9.8	3.19077E-001	3.69499E-007	0.00000E+000	3.19250E-001	9.46792E-004	5	..........a	-327.66
	51	10.4	3.49107E-001	3.89545E-007	0.00000E+000	3.49250E-001	9.60292E-004	5	..........a	-327.66
	54	11	3.79050E-001	4.07917E-007	0.00000E+000	3.79250E-001	9.48992E-004	5	..........a	-327.66
	57	11.6	4.09126E-001	4.31561E-007	0.00000E+000	4.09250E-001	9.57492E-004	5	..........a	-327.66
	60	12.2	4.39013E-001	4.42130E-007	0.00000E+000	4.39250E-001	9.48792E-004	5	..........a	-327.66
[...]
	1085	217.2	-5.09822E-001	-1.18606E-007	0.00000E+000	-5.10000E-001	9.57692E-004	5	..........a	-327.66
	1086	217.4	-4.99807E-001	-1.06335E-007	0.00000E+000	-5.00000E-001	9.58192E-004	5	..........a	-327.66
	1087	217.6	-4.89830E-001	-9.44477E-008	0.00000E+000	-4.90000E-001	9.65492E-004	5	..........a	-327.66
	1088	217.8	-4.79834E-001	-8.35281E-008	0.00000E+000	-4.80000E-001	9.46492E-004	5	..........a	-327.66
	1089	218	-4.69834E-001	-7.33671E-008	0.00000E+000	-4.70000E-001	9.46292E-004	5	..........a	-327.66
	1090	218.2	-4.59798E-001	-6.40442E-008	0.00000E+000	-4.60000E-001	9.46292E-004	5	..........a	-327.66
	1091	218.4	-4.49837E-001	-5.47782E-008	0.00000E+000	-4.50000E-001	9.42992E-004	5	..........a	-327.66
	1092	218.6	-4.39828E-001	-4.61666E-008	0.00000E+000	-4.40000E-001	9.60292E-004	5	..........a	-327.66
	1093	218.8	-4.29860E-001	-3.79407E-008	0.00000E+000	-4.30000E-001	9.53792E-004	5	..........a	-327.66
	1094	219	-4.19826E-001	-3.00693E-008	0.00000E+000	-4.20000E-001	9.53092E-004	5	..........a	-327.66
	1095	219.2	-4.09868E-001	-2.23265E-008	0.00000E+000	-4.10000E-001	9.56992E-004	5	..........a	-327.66
	1096	219.4	-3.99852E-001	-1.46678E-008	0.00000E+000	-4.00000E-001	9.52592E-004	5	..........a	-327.66
	1097	219.6	-3.89920E-001	-7.50065E-009	0.00000E+000	-3.90000E-001	9.57192E-004	5	..........a	-327.66
	1098	219.8	-3.79863E-001	-9.18278E-010	0.00000E+000	-3.80000E-001	9.51492E-004	5	..........a	-327.66
	1099	220	-3.69888E-001	5.68306E-009	0.00000E+000	-3.70000E-001	9.61192E-004	5	..........a	-327.66
	1100	220.2	-3.59948E-001	1.25221E-008	0.00000E+000	-3.60000E-001	9.65892E-004	5	..........a	-327.66
	1101	220.4	-3.49911E-001	1.81955E-008	0.00000E+000	-3.50000E-001	9.59192E-004	5	..........a	-327.66
	1102	220.6	-3.39878E-001	2.46318E-008	0.00000E+000	-3.40000E-001	9.46092E-004	5	..........a	-327.66
	1103	220.8	-3.29926E-001	3.04287E-008	0.00000E+000	-3.30000E-001	9.61892E-004	5	..........a	-327.66
	1104	221	-3.19900E-001	3.58685E-008	0.00000E+000	-3.20000E-001	9.62192E-004	5	..........a	-327.66
	1105	221.2	-3.09936E-001	4.15187E-008	0.00000E+000	-3.10000E-001	9.54392E-004	5	..........a	-327.66
	1106	221.4	-2.99890E-001	4.65720E-008	0.00000E+000	-3.00000E-001	9.43192E-004	5	..........a	-327.66
	1107	221.6	-2.89936E-001	5.16196E-008	0.00000E+000	-2.90000E-001	9.54192E-004	5	..........a	-327.66
	1108	221.8	-2.79940E-001	5.63835E-008	0.00000E+000	-2.80000E-001	9.60292E-004	5	..........a	-327.66
	1109	222	-2.69905E-001	6.11849E-008	0.00000E+000	-2.70000E-001	9.53392E-004	5	..........a	-327.66
	1110	222.2	-2.59895E-001	6.57796E-008	0.00000E+000	-2.60000E-001	9.49592E-004	5	..........a	-327.66
	1111	222.4	-2.49913E-001	7.01773E-008	0.00000E+000	-2.50000E-001	9.59992E-004	5	..........a	-327.66
	1112	222.6	-2.39942E-001	7.39615E-008	0.00000E+000	-2.40000E-001	9.55892E-004	5	..........a	-327.66
	1113	222.8	-2.29954E-001	7.83926E-008	0.00000E+000	-2.30000E-001	9.48892E-004	5	..........a	-327.66
	1114	223	-2.19932E-001	8.31028E-008	0.00000E+000	-2.20000E-001	9.46792E-004	5	..........a	-327.66
	1115	223.2	-2.09938E-001	8.78221E-008	0.00000E+000	-2.10000E-001	9.58392E-004	5	..........a	-327.66
	1116	223.4	-2.00008E-001	9.26676E-008	0.00000E+000	-2.00000E-001	9.62992E-004	5	..........a	-327.66
	1117	223.6	-1.90031E-001	9.76593E-008	0.00000E+000	-1.90000E-001	9.57292E-004	5	..........a	-327.66
	1118	223.8	-1.80000E-001	1.02839E-007	0.00000E+000	-1.80000E-001	9.52992E-004	5	..........a	-327.66
	1119	224	-1.69957E-001	1.08115E-007	0.00000E+000	-1.70000E-001	9.49292E-004	5	..........a	-327.66
	1120	224.2	-1.60025E-001	1.13384E-007	0.00000E+000	-1.60000E-001	9.51092E-004	5	..........a	-327.66